timestamp,trial,response_time,cursor_position,target_response,response
2024-02-17 15:27:59.543933,0,0.8591334999655373,0,m,m
2024-02-17 15:27:59.607779,0,0.04218889999901876,1,a,a
2024-02-17 15:27:59.762291,0,0.12835429998813197,2,c,c
2024-02-17 15:28:00.019511,0,0.23716389999026433,3,e,e
2024-02-17 15:28:00.239123,0,0.18918839999241754,4,d,d
2024-02-17 15:28:00.392420,0,0.12594050000188872,5,o,o
2024-02-17 15:28:00.502892,0,0.08707159996265545,6,n,n
2024-02-17 15:28:00.657540,0,0.1410804000333883,7,i,i
2024-02-17 15:28:00.752016,0,0.0694190000067465,8,a,a
2024-02-17 15:28:00.880911,0,0.11473430000478402,9,space,space
2024-02-17 15:28:01.078084,0,0.17851719999453053,10,t,t
2024-02-17 15:28:01.138497,0,0.039301600016187876,11,h,h
2024-02-17 15:28:01.254811,0,0.08806340000592172,12,a,a
2024-02-17 15:28:01.330065,0,0.04754289996344596,13,i,i
2024-02-17 15:28:01.526006,0,0.17692840000381693,14,l,l
2024-02-17 15:28:01.620979,0,0.07167209999170154,15,a,a
2024-02-17 15:28:01.714154,0,0.06559180002659559,16,n,n
2024-02-17 15:28:01.801865,0,0.06948050000937656,17,d,d
2024-02-17 15:28:01.888793,0,0.0726264999830164,18,space,space
2024-02-17 15:28:02.093128,0,0.17749149998417124,19,d,g
2024-02-17 15:28:02.233320,0,0.11779940000269562,19,d,j
2024-02-17 15:28:02.855956,0,0.606765299977269,19,d,d
2024-02-17 15:28:02.927835,0,0.04495189996669069,20,j,j
2024-02-17 15:28:03.026101,0,0.07564719999209046,21,i,i
2024-02-17 15:28:03.159537,0,0.11012600001413375,22,b,b
2024-02-17 15:28:03.518274,0,0.3356276000267826,23,o,o
2024-02-17 15:28:03.704835,0,0.1722105999942869,24,u,u
2024-02-17 15:28:03.796586,0,0.06380010000430048,25,t,t
2024-02-17 15:28:04.029567,0,0.213618999987375,26,i,r
2024-02-17 15:28:04.117491,0,0.06742670002859086,26,i,i
2024-02-17 15:28:04.449473,0,0.31646030000410974,27,space,space
2024-02-17 15:28:04.640173,0,0.17347839998546988,28,m,m
2024-02-17 15:28:04.716694,0,0.05013119999784976,29,i,i
2024-02-17 15:28:04.793586,0,0.05741999996826053,30,c,c
2024-02-17 15:28:04.954163,0,0.13700809999136254,31,r,r
2024-02-17 15:28:05.013341,0,0.030315999989397824,32,o,o
2024-02-17 15:28:05.129622,0,0.09454900003038347,33,n,n
2024-02-17 15:28:05.249693,0,0.09942749998299405,34,e,e
2024-02-17 15:28:05.484188,0,0.2180411999579519,35,s,s
2024-02-17 15:28:05.582533,0,0.0826119999983348,36,i,i
2024-02-17 15:28:05.647091,0,0.04725910001434386,37,a,a
2024-02-17 15:28:05.784314,0,0.11754399997880682,38,space,space
2024-02-17 15:28:05.934842,0,0.13431529997615144,39,e,e
2024-02-17 15:28:06.108454,0,0.15803419996518642,40,c,c
2024-02-17 15:28:06.217633,0,0.08424370002467185,41,u,u
2024-02-17 15:28:06.294138,0,0.06123039999511093,42,a,a
2024-02-17 15:28:06.610645,0,0.2933702999725938,43,d,d
2024-02-17 15:28:06.696550,0,0.06284369999775663,44,o,o
2024-02-17 15:28:06.814884,0,0.09845839999616146,45,r,r
2024-02-17 15:28:06.905129,0,0.07130930002313107,46,space,space
2024-02-17 15:28:07.132530,0,0.19930849998490885,47,q,q
2024-02-17 15:28:07.433498,0,0.28363800002261996,48,a,a
2024-02-17 15:28:07.608401,0,0.1589881000109017,49,t,t
2024-02-17 15:28:07.711543,0,0.0773854999570176,50,a,a
2024-02-17 15:28:08.017205,0,0.28320160001749173,51,r,r
2024-02-17 15:28:08.271536,0,0.23762109997915104,52,space,space
2024-02-17 15:28:08.609379,0,0.3081653999979608,53,b,n
2024-02-17 15:28:08.809987,0,0.1759660000097938,53,b,p
2024-02-17 15:28:09.118798,0,0.2851838999777101,53,b,b
2024-02-17 15:28:09.165665,0,0.031010999984573573,54,o,o
2024-02-17 15:28:09.288332,0,0.10108300001593307,55,t,t
2024-02-17 15:28:09.542861,0,0.22510999999940395,56,s,s
2024-02-17 15:28:10.099382,0,0.532103699981235,57,w,w
2024-02-17 15:28:10.216349,0,0.09852010000031441,58,a,a
2024-02-17 15:28:10.373773,0,0.14022010000189766,59,n,n
2024-02-17 15:28:10.461701,0,0.06035210000118241,60,a,a
2024-02-17 15:28:10.572261,0,0.08721470000455156,61,space,space
2024-02-17 15:28:11.244363,0,0.6439288000110537,62,v,v
2024-02-17 15:28:11.335516,0,0.06736099999397993,63,i,i
2024-02-17 15:28:11.420491,0,0.06982010003412142,64,e,e
2024-02-17 15:28:11.519624,0,0.08561730000656098,65,t,r
2024-02-17 15:28:11.843774,0,0.30941609997535124,65,t,t
2024-02-17 15:28:11.958723,0,0.09031250001862645,66,n,n
2024-02-17 15:28:12.134150,0,0.1469970000325702,67,a,a
2024-02-17 15:28:12.327957,0,0.1768453000113368,68,m,m
2024-02-17 15:28:12.616693,0,0.2657026000088081,69,space,space
2024-02-17 15:28:12.862736,0,0.22864169999957085,70,f,f
2024-02-17 15:28:12.922872,0,0.0388818999635987,71,i,i
2024-02-17 15:28:13.258313,0,0.3039964000345208,72,j,i
2024-02-17 15:28:13.522896,0,0.2382668000063859,72,j,j
2024-02-17 15:28:13.629854,0,0.07863530004397035,73,i,i
2024-02-17 15:28:13.742568,0,0.09132010000757873,74,space,space
2024-02-17 15:28:13.944212,0,0.17668840003898367,75,e,e
2024-02-17 15:28:14.113579,0,0.14655810000840575,76,s,s
2024-02-17 15:28:14.228356,0,0.09353750001173466,77,t,t
2024-02-17 15:28:14.280242,0,0.028734799998346716,78,o,o
2024-02-17 15:28:14.366949,0,0.06397429999196902,79,n,n
2024-02-17 15:28:14.446100,0,0.040310500015039,80,i,a
2024-02-17 15:28:14.521055,0,0.05133749998640269,80,i,i
2024-02-17 15:28:14.675412,0,0.12254030001349747,81,a,a
2024-02-17 15:28:14.763266,0,0.06245430000126362,82,space,space
2024-02-17 15:28:15.104228,0,0.2999744000262581,83,g,g
2024-02-17 15:28:15.281189,0,0.16322180000133812,84,e,e
2024-02-17 15:28:15.363715,0,0.06206309999106452,85,o,r
2024-02-17 15:28:15.428163,0,0.02374280005460605,85,o,o
2024-02-17 15:28:15.829411,0,0.3582233000197448,86,r,g
2024-02-17 15:28:15.941491,0,0.08956559997750446,86,r,i
2024-02-17 15:28:16.307845,0,0.3388099000439979,86,r,r
2024-02-17 15:28:16.473262,0,0.13763079995987937,87,g,g
2024-02-17 15:28:16.541643,0,0.03958740003872663,88,i,i
2024-02-17 15:28:16.660950,0,0.08906810003099963,89,a,a
2024-02-17 15:28:16.756384,0,0.07110410003224388,90,space,space
2024-02-17 15:28:17.049734,0,0.26534910005284473,91,a,a
2024-02-17 15:28:17.136135,0,0.06755650002742186,92,n,n
2024-02-17 15:28:17.236271,0,0.06505420000758022,93,g,g
2024-02-17 15:28:17.334390,0,0.0659006999921985,94,o,o
2024-02-17 15:28:17.502336,0,0.13409589999355376,95,l,l
2024-02-17 15:28:17.571352,0,0.05316549999406561,96,a,a
2024-02-17 15:28:17.678761,0,0.07532170001650229,97,space,space
2024-02-17 15:28:17.814006,0,0.11266129999421537,98,s,s
2024-02-17 15:28:17.955064,0,0.12014050001744181,99,e,n
2024-02-17 15:28:18.035278,0,0.04985860001761466,99,e,e
2024-02-17 15:28:18.172539,0,0.10220840002875775,100,n,n
2024-02-17 15:28:18.205766,0,0.0033920000423677266,101,e,e
2024-02-17 15:28:18.412949,0,0.17444870003964752,102,g,g
2024-02-17 15:28:18.878619,0,0.4431961000082083,103,a,a
2024-02-17 15:28:18.951845,0,0.048918900021817535,104,l,l
2024-02-17 15:28:19.064394,0,0.07575740001630038,105,space,space
2024-02-17 15:28:19.328487,0,0.24313480005366728,106,b,b
2024-02-17 15:28:19.444636,0,0.09242339996853843,107,r,r
2024-02-17 15:28:19.499897,0,0.0313437000149861,108,u,u
2024-02-17 15:28:19.624256,0,0.08624999999301508,109,n,n
2024-02-17 15:28:19.714045,0,0.06176640000194311,110,e,e
2024-02-17 15:28:19.800306,0,0.04738499998347834,111,i,i
2024-02-17 15:28:19.985390,0,0.1477607000269927,112,space,space
2024-02-17 15:28:20.292480,0,0.2897975000087172,113,p,p
2024-02-17 15:28:20.400039,0,0.08117520000087097,114,e,e
2024-02-17 15:28:20.467961,0,0.04844669997692108,115,r,r
2024-02-17 15:28:20.552362,0,0.0468064000015147,116,u,u
2024-02-17 15:28:20.754188,0,0.16615639999508858,117,space,space
2024-02-17 15:28:21.029736,0,0.24490930000320077,118,b,b
2024-02-17 15:28:21.208296,0,0.15610819996800274,119,u,u
2024-02-17 15:28:21.390905,0,0.15499110001837835,120,r,r
2024-02-17 15:28:21.480494,0,0.06132490001618862,121,k,k
2024-02-17 15:28:21.572400,0,0.05223660002229735,122,i,i
2024-02-17 15:28:21.662513,0,0.05786900001112372,123,n,n
2024-02-17 15:28:21.780820,0,0.07618299999739975,124,a,a
2024-02-17 15:28:21.879129,0,0.07638570002745837,125,space,space
2024-02-17 15:28:22.188619,0,0.2866642000153661,126,l,l
2024-02-17 15:28:22.279087,0,0.058518200006801635,127,e,e
2024-02-17 15:28:22.471083,0,0.1677983999834396,128,b,b
2024-02-17 15:28:22.609873,0,0.12340799998492002,129,a,a
2024-02-17 15:28:22.704957,0,0.0684511000290513,130,n,n
2024-02-17 15:28:23.019346,0,0.27782249997835606,131,o,n
2024-02-17 15:28:23.095979,0,0.05911800003377721,131,o,o
2024-02-17 15:28:23.210949,0,0.07107219996396452,132,n,n
2024-02-17 15:28:23.325988,0,0.08902460004901513,133,space,space
2024-02-17 15:28:23.619368,0,0.26760300004389137,134,u,u
2024-02-17 15:28:23.789707,0,0.1314266999834217,135,k,k
2024-02-17 15:28:23.863748,0,0.04348819999722764,136,r,r
2024-02-17 15:28:23.934561,0,0.044717100041452795,137,a,a
2024-02-17 15:28:23.979670,0,0.007341000018641353,138,i,i
2024-02-17 15:28:24.051912,0,0.04743219999363646,139,n,n
2024-02-17 15:28:24.195929,0,0.10705619998043403,140,e,e
2024-02-17 15:28:24.318768,0,0.09991629997966811,141,space,space
2024-02-17 15:28:24.605373,0,0.26909319998230785,142,n,n
2024-02-17 15:28:24.701399,0,0.06469120003748685,143,a,a
2024-02-17 15:28:24.808959,0,0.06875079998280853,144,u,u
2024-02-17 15:28:24.899941,0,0.06395629997132346,145,r,r
2024-02-17 15:28:25.033569,0,0.09714839997468516,146,u,a
2024-02-17 15:28:25.542290,0,0.4899792000069283,146,u,u
2024-02-17 15:28:25.721431,0,0.1509620999568142,147,space,space
2024-02-17 15:28:25.923617,0,0.1868497999967076,148,s,s
2024-02-17 15:28:26.033472,0,0.07949059997918084,149,i,i
2024-02-17 15:28:26.115185,0,0.06251089996658266,150,n,n
2024-02-17 15:28:26.160915,0,0.007962999981828034,151,g,g
2024-02-17 15:28:26.327222,0,0.13845389999914914,152,a,p
2024-02-17 15:28:26.657258,0,0.3042833000072278,152,a,p
2024-02-17 15:28:26.764114,0,0.07737099996302277,152,a,a
2024-02-17 15:28:26.874881,0,0.08803099999204278,153,p,p
2024-02-17 15:28:27.012655,0,0.10925300000235438,154,o,o
2024-02-17 15:28:27.115704,0,0.07864379999227822,155,r,r
2024-02-17 15:28:27.262756,0,0.10686289996374398,156,e,space
2024-02-17 15:28:27.519971,0,0.23310589999891818,156,e,e
2024-02-17 15:28:27.805146,0,0.26883619994623587,157,space,space
2024-02-17 15:28:27.913174,0,0.09297990001505241,158,i,i
2024-02-17 15:28:28.226963,0,0.2903258999576792,159,r,r
2024-02-17 15:28:28.292674,0,0.03872500004945323,160,a,a
2024-02-17 15:28:28.398125,0,0.07524039997952059,161,n,n
2024-02-17 15:28:28.595140,0,0.175654599966947,162,space,space
2024-02-17 15:28:28.800295,0,0.18025609996402636,163,l,l
2024-02-17 15:28:28.970523,0,0.15077480004401878,164,u,u
2024-02-17 15:28:29.222340,0,0.23487970000132918,165,x,e
2024-02-17 15:28:29.283824,0,0.029726599983405322,165,x,m
2024-02-17 15:28:30.116798,0,0.7939386000507511,165,x,x
2024-02-17 15:28:30.387004,0,0.24917710002046078,166,e,e
2024-02-17 15:28:30.481872,0,0.07803979999152943,167,m,m
2024-02-17 15:28:30.689173,0,0.18237900000531226,168,b,b
2024-02-17 15:28:30.823627,0,0.11602959997253492,169,o,o
2024-02-17 15:28:30.981404,0,0.1225183000206016,170,u,u
2024-02-17 15:28:31.177543,0,0.17317510000430048,171,r,r
2024-02-17 15:28:31.369663,0,0.16636600001947954,172,g,g
2024-02-17 15:28:31.698400,0,0.31099080003332347,173,space,space
2024-02-17 15:28:31.891718,0,0.17092819995013997,174,d,e
2024-02-17 15:28:31.948249,0,0.027437500015366822,174,d,n
2024-02-17 15:28:32.211818,0,0.22169909998774529,174,d,d
2024-02-17 15:28:32.262933,0,0.02631449996260926,175,e,e
2024-02-17 15:28:32.460803,0,0.15464780002366751,176,n,e
2024-02-17 15:28:32.535976,0,0.04817889997502789,176,n,m
2024-02-17 15:28:32.995923,0,0.4218418999807909,176,n,n
2024-02-17 15:28:33.189507,0,0.16934170003514737,177,m,m
2024-02-17 15:28:33.252707,0,0.031129400013014674,178,a,a
2024-02-17 15:28:33.384660,0,0.09433339996030554,179,r,k
2024-02-17 15:28:33.557305,0,0.15319879999151453,179,r,space
2024-02-17 15:28:34.339608,0,0.7519452999695204,179,r,r
2024-02-17 15:28:34.434390,0,0.07976049999706447,180,k,k
2024-02-17 15:28:34.532872,0,0.06110170000465587,181,space,space
2024-02-17 15:28:34.647537,0,0.0711262000259012,182,m,m
2024-02-17 15:28:34.741448,0,0.0702443000045605,183,o,o
2024-02-17 15:28:34.840511,0,0.06964819994755089,184,n,n
2024-02-17 15:28:34.943259,0,0.07138030003989115,185,a,o
2024-02-17 15:28:35.320310,0,0.35003689996665344,185,a,a
2024-02-17 15:28:35.451220,0,0.11313100002007559,186,c,c
2024-02-17 15:28:35.532797,0,0.06047450000187382,187,o,n
2024-02-17 15:28:35.779801,0,0.222113800002262,187,o,o
2024-02-17 15:28:35.922048,0,0.11766779999015853,188,space,space
2024-02-17 15:28:36.348679,0,0.41110460000345483,189,t,t
2024-02-17 15:28:36.537203,0,0.16582130000460893,190,u,u
2024-02-17 15:28:36.745325,0,0.1903034999850206,191,v,v
2024-02-17 15:28:36.951464,0,0.1799161999952048,192,a,a
2024-02-17 15:28:37.043594,0,0.07194949995027855,193,l,l
2024-02-17 15:28:37.172125,0,0.10040459997253492,194,u,u
2024-02-17 15:28:37.439139,0,0.25161259999731556,195,space,space
2024-02-17 15:28:37.787138,0,0.31579490000149235,196,k,k
2024-02-17 15:28:37.998116,0,0.1932348000118509,197,a,z
2024-02-17 15:28:38.195341,0,0.17311919998610392,197,a,a
2024-02-17 15:28:38.379199,0,0.15668580000055954,198,z,h
2024-02-17 15:28:38.953277,0,0.5482200999977067,198,z,a
2024-02-17 15:28:39.203956,0,0.23178309999639168,198,z,z
2024-02-17 15:28:39.264971,0,0.04262770002242178,199,a,a
2024-02-17 15:28:39.351606,0,0.043687400000635535,200,k,h
2024-02-17 15:28:39.573307,0,0.18353739997837692,200,k,k
2024-02-17 15:28:39.777285,0,0.17207640002015978,201,h,h
2024-02-17 15:28:40.111224,0,0.30630159995052963,202,s,s
2024-02-17 15:28:40.276925,0,0.13837310002418235,203,t,t
2024-02-17 15:28:40.337199,0,0.031736800039652735,204,a,a
2024-02-17 15:28:40.385244,0,0.01073419995373115,205,n,n
2024-02-17 15:28:40.645861,0,0.2212559999898076,206,space,space
2024-02-17 15:28:40.932127,0,0.2601639000349678,207,i,i
2024-02-17 15:28:41.020363,0,0.06531790003646165,208,s,s
2024-02-17 15:28:41.319664,0,0.2449227999895811,209,r,r
2024-02-17 15:28:41.366578,0,0.028469399956520647,210,a,e
2024-02-17 15:28:41.521333,0,0.11366390000330284,210,a,a
2024-02-17 15:28:41.661248,0,0.12307519995374605,211,e,l
2024-02-17 15:28:41.789228,0,0.10074349999194965,211,e,space
2024-02-17 15:28:42.739227,0,0.9333104999968782,211,e,e
2024-02-17 15:28:42.864228,0,0.08990730001823977,212,l,l
2024-02-17 15:28:42.928232,0,0.03879999998025596,213,space,space
2024-02-17 15:28:43.156227,0,0.18057810002937913,214,b,b
2024-02-17 15:28:43.324225,0,0.13361040002200752,215,o,o
2024-02-17 15:28:43.469756,0,0.10908740002196282,216,l,l
2024-02-17 15:28:43.614750,0,0.12615740002365783,217,i,i
2024-02-17 15:28:43.693771,0,0.05327719997148961,218,v,v
2024-02-17 15:28:43.809752,0,0.08487520000198856,219,i,i
2024-02-17 15:28:43.874750,0,0.035435000027064234,220,a,a
2024-02-17 15:28:44.021752,0,0.09726289997342974,221,space,space
2024-02-17 15:28:44.509820,0,0.45355999999446794,222,b,b
2024-02-17 15:28:44.615876,0,0.07629680004902184,223,u,u
2024-02-17 15:28:44.783148,0,0.14341880002757534,224,l,l
2024-02-17 15:28:44.965368,0,0.15911390003748238,225,g,g
2024-02-17 15:28:45.098410,0,0.10910659999353811,226,a,r
2024-02-17 15:28:45.176601,0,0.053366800013463944,226,a,a
2024-02-17 15:28:45.328950,0,0.12125710002146661,227,r,i
2024-02-17 15:28:45.606768,0,0.24991390004288405,227,r,r
2024-02-17 15:28:45.717868,0,0.09474349999800324,228,i,i
2024-02-17 15:28:45.774588,0,0.03400430001784116,229,a,a
2024-02-17 15:28:45.974328,0,0.16528790001757443,230,space,space
2024-02-17 15:28:46.577813,0,0.5876431000069715,231,z,b
2024-02-17 15:28:46.711613,0,0.10446719999890774,231,z,i
2024-02-17 15:28:46.847035,0,0.10749939997913316,231,z,m
2024-02-17 15:28:47.420886,0,0.5477691999985836,231,z,z
2024-02-17 15:28:47.535387,0,0.09501769999042153,232,i,i
2024-02-17 15:28:47.593823,0,0.037110599980223924,233,m,m
2024-02-17 15:28:48.971766,0,1.3468501000315882,234,b,b
2024-02-17 15:28:49.135183,0,0.14492200000677258,235,a,a
2024-02-17 15:28:49.250689,0,0.09390839998377487,236,b,b
2024-02-17 15:28:49.944412,0,0.6712320999940857,237,w,w
2024-02-17 15:28:53.927399,0,3.9536285999929532,238,e,e
2024-02-17 15:28:55.024661,1,1.0840750000206754,0,a,a
2024-02-17 15:28:55.108106,1,0.0664474000222981,1,l,l
2024-02-17 15:28:55.268802,1,0.1253146999515593,2,b,a
2024-02-17 15:28:55.431373,1,0.1398607000010088,2,b,b
2024-02-17 15:28:55.565740,1,0.10831300000427291,3,a,a
2024-02-17 15:28:55.669351,1,0.07721440005116165,4,n,n
2024-02-17 15:28:55.789019,1,0.09778139996342361,5,i,i
2024-02-17 15:28:55.925151,1,0.11826349998591468,6,a,a
2024-02-17 15:28:56.020488,1,0.07960019999882206,7,space,space
2024-02-17 15:28:56.493309,1,0.4531721000093967,8,m,m
2024-02-17 15:28:56.673147,1,0.1655505999806337,9,a,a
2024-02-17 15:28:56.748848,1,0.05676629999652505,10,l,l
2024-02-17 15:28:56.826547,1,0.048859599977731705,11,a,a
2024-02-17 15:28:57.024918,1,0.1651551999966614,12,w,z
2024-02-17 15:28:57.368917,1,0.3276400999748148,12,w,w
2024-02-17 15:28:57.437936,1,0.04648489999817684,13,i,i
2024-02-17 15:28:57.627101,1,0.1486665999982506,14,space,space
2024-02-17 15:28:57.842970,1,0.2018231000402011,15,b,b
2024-02-17 15:28:57.935476,1,0.061074099969118834,16,a,a
2024-02-17 15:28:58.051234,1,0.09114050003699958,17,n,n
2024-02-17 15:28:58.136135,1,0.061668100010138005,18,g,d
2024-02-17 15:28:58.662137,1,0.5017058000084944,18,g,g
2024-02-17 15:28:58.823471,1,0.1490751999663189,19,l,l
2024-02-17 15:28:58.946182,1,0.10493939998559654,20,a,a
2024-02-17 15:28:59.310547,1,0.3354113000095822,21,d,d
2024-02-17 15:28:59.416858,1,0.09172909997869283,22,e,e
2024-02-17 15:28:59.596522,1,0.15447910001967102,23,s,s
2024-02-17 15:28:59.646795,1,0.021617399994283915,24,h,h
2024-02-17 15:28:59.804320,1,0.12717890000203624,25,space,space
2024-02-17 15:29:00.095093,1,0.27018689998658374,26,v,v
2024-02-17 15:29:00.199879,1,0.07394449994899333,27,e,e
2024-02-17 15:29:00.346474,1,0.12002139998367056,28,n,n
2024-02-17 15:29:00.437345,1,0.06210109998937696,29,e,e
2024-02-17 15:29:00.648295,1,0.16862890002084896,30,z,z
2024-02-17 15:29:00.811875,1,0.13650250004138798,31,u,u
2024-02-17 15:29:00.973874,1,0.14886299998033792,32,e,e
2024-02-17 15:29:01.103362,1,0.11202910001156852,33,l,l
2024-02-17 15:29:01.440815,1,0.31583979999413714,34,a,a
2024-02-17 15:29:01.629378,1,0.17075589997693896,35,space,space
2024-02-17 15:29:01.810140,1,0.1509012999595143,36,s,s
2024-02-17 15:29:02.016272,1,0.1907511999597773,37,a,a
2024-02-17 15:29:02.154716,1,0.11283409997122362,38,m,m
2024-02-17 15:29:02.247438,1,0.06998760002898052,39,o,o
2024-02-17 15:29:02.636141,1,0.3415001999819651,40,a,a
2024-02-17 15:29:02.815670,1,0.15711349999764934,41,space,space
2024-02-17 15:29:03.152632,1,0.3101631000172347,42,t,t
2024-02-17 15:29:03.241273,1,0.06505590002052486,43,o,o
2024-02-17 15:29:03.339513,1,0.06395320000592619,44,n,n
2024-02-17 15:29:03.383436,1,0.007278399949427694,45,g,g
2024-02-17 15:29:03.547314,1,0.13535450003109872,46,a,a
2024-02-17 15:29:03.654165,1,0.07922750001307577,47,space,space
2024-02-17 15:29:04.058365,1,0.3831515000201762,48,b,b
2024-02-17 15:29:04.153793,1,0.07835199998226017,49,u,r
2024-02-17 15:29:04.367087,1,0.18902429996524006,49,u,r
2024-02-17 15:29:04.488569,1,0.09637220000149682,49,u,u
2024-02-17 15:29:05.108653,1,0.5994089000159875,50,r,r
2024-02-17 15:29:05.205609,1,0.07974759995704517,51,u,u
2024-02-17 15:29:05.294237,1,0.06670149997808039,52,n,n
2024-02-17 15:29:05.658053,1,0.33206769998651,53,d,d
2024-02-17 15:29:05.779766,1,0.10405640001408756,54,i,i
2024-02-17 15:29:05.895971,1,0.08665459998883307,55,space,space
2024-02-17 15:29:06.178769,1,0.2521392999915406,56,u,u
2024-02-17 15:29:06.302535,1,0.11042809998616576,57,z,z
2024-02-17 15:29:06.603248,1,0.2777051999582909,58,b,b
2024-02-17 15:29:06.702235,1,0.0747424999717623,59,e,e
2024-02-17 15:29:07.095446,1,0.36701750004431233,60,k,k
2024-02-17 15:29:07.592903,1,0.48309619998326525,61,i,i
2024-02-17 15:29:07.687806,1,0.07804029999533668,62,s,s
2024-02-17 15:29:07.815079,1,0.10540599998785183,63,t,t
2024-02-17 15:29:07.869600,1,0.02623939997283742,64,a,a
2024-02-17 15:29:07.922973,1,0.027492999972309917,65,n,n
2024-02-17 15:29:08.131678,1,0.16828470001928508,66,space,space
2024-02-17 15:29:08.500118,1,0.34051110001746565,67,l,l
2024-02-17 15:29:08.644041,1,0.11783709999872372,68,u,u
2024-02-17 15:29:08.877025,1,0.2166158999898471,69,x,z
2024-02-17 15:29:09.195974,1,0.3027140999911353,69,x,m
2024-02-17 15:29:09.523468,1,0.31381670001428574,69,x,z
2024-02-17 15:29:09.756646,1,0.21295150002697483,69,x,e
2024-02-17 15:29:09.862031,1,0.08518229995388538,69,x,m
2024-02-17 15:29:10.252256,1,0.37514249997911975,69,x,z
2024-02-17 15:29:11.063807,1,0.7868241000105627,69,x,x
2024-02-17 15:29:11.237990,1,0.14498300000559539,70,e,e
2024-02-17 15:29:11.324825,1,0.06383890000870451,71,m,m
2024-02-17 15:29:11.497402,1,0.13467430003220215,72,b,b
2024-02-17 15:29:11.887659,1,0.3612637000042014,73,o,o
2024-02-17 15:29:12.056196,1,0.14569860004121438,74,u,u
2024-02-17 15:29:12.157666,1,0.08015190000878647,75,r,r
2024-02-17 15:29:12.297104,1,0.12055479997070506,76,g,space
2024-02-17 15:29:12.654410,1,0.3273874999722466,76,g,space
2024-02-17 15:29:12.744881,1,0.06887010001810268,76,g,g
2024-02-17 15:29:12.850962,1,0.07371340005192906,77,space,space
2024-02-17 15:29:13.385177,1,0.508796899986919,78,h,h
2024-02-17 15:29:13.504578,1,0.09390450001228601,79,u,u
2024-02-17 15:29:13.595699,1,0.06882840004982427,80,n,n
2024-02-17 15:29:13.869079,1,0.23874360002810135,81,g,g
2024-02-17 15:29:14.043633,1,0.14881669997703284,82,a,a
2024-02-17 15:29:14.100102,1,0.03957389999413863,83,r,r
2024-02-17 15:29:14.299240,1,0.16869099996984005,84,y,y
2024-02-17 15:29:14.548851,1,0.22183629998471588,85,space,space
2024-02-17 15:29:14.605361,1,0.028521300002466887,86,s,s
2024-02-17 15:29:14.803423,1,0.17346070002531633,87,e,e
2024-02-17 15:29:14.902533,1,0.07530939998105168,88,r,r
2024-02-17 15:29:15.117645,1,0.19035569997504354,89,b,b
2024-02-17 15:29:15.174367,1,0.030816199956461787,90,i,i
2024-02-17 15:29:15.295549,1,0.08192089997464791,91,a,a
2024-02-17 15:29:15.385754,1,0.07477229996584356,92,space,space
2024-02-17 15:29:15.785045,1,0.37405739998212084,93,m,m
2024-02-17 15:29:15.889008,1,0.07724579999921843,94,a,a
2024-02-17 15:29:16.007613,1,0.09663710003951564,95,l,l
2024-02-17 15:29:16.068392,1,0.04094729997450486,96,a,a
2024-02-17 15:29:16.250361,1,0.15329930000007153,97,y,y
2024-02-17 15:29:16.390367,1,0.11246850003954023,98,s,s
2024-02-17 15:29:16.604744,1,0.19371820002561435,99,i,z
2024-02-17 15:29:16.728882,1,0.10105800000019372,99,i,i
2024-02-17 15:29:16.984667,1,0.24075009999796748,100,a,s
2024-02-17 15:29:17.234002,1,0.2231107999687083,100,a,a
2024-02-17 15:29:17.324013,1,0.06275360001018271,101,space,space
2024-02-17 15:29:17.511971,1,0.14946530002634972,102,s,s
2024-02-17 15:29:17.805457,1,0.27817860001232475,103,w,w
2024-02-17 15:29:17.985609,1,0.1562133000115864,104,a,a
2024-02-17 15:29:18.269287,1,0.25791889999527484,105,z,z
2024-02-17 15:29:18.472770,1,0.17826959997182712,106,i,i
2024-02-17 15:29:18.828341,1,0.3334078000043519,107,l,l
2024-02-17 15:29:18.939600,1,0.094204000022728,108,a,a
2024-02-17 15:29:19.024551,1,0.06328849995043129,109,n,n
2024-02-17 15:29:19.135343,1,0.07097870000870898,110,d,d
2024-02-17 15:29:19.233972,1,0.07292279996909201,111,space,space
2024-02-17 15:29:19.569909,1,0.30850340001052245,112,n,n
2024-02-17 15:29:19.648489,1,0.05278219998581335,113,a,a
2024-02-17 15:29:19.761165,1,0.06365820002974942,114,u,u
2024-02-17 15:29:19.844197,1,0.06631299998844042,115,r,r
2024-02-17 15:29:19.971500,1,0.09122840000782162,116,u,a
2024-02-17 15:29:20.119401,1,0.12512059998698533,116,u,space
2024-02-17 15:29:20.488663,1,0.34385080001084134,116,u,u
2024-02-17 15:29:20.600433,1,0.08900290000019595,117,space,space
2024-02-17 15:29:21.012722,1,0.3843481999938376,118,r,o
2024-02-17 15:29:21.294412,1,0.2656772999907844,118,r,r
2024-02-17 15:29:21.378112,1,0.0655716999899596,119,o,o
2024-02-17 15:29:21.438399,1,0.023168799991253763,120,m,m
2024-02-17 15:29:21.505698,1,0.03922669996973127,121,a,a
2024-02-17 15:29:21.640544,1,0.09109280002303421,122,n,n
2024-02-17 15:29:21.752154,1,0.09057699999539182,123,i,i
2024-02-17 15:29:21.886589,1,0.10776429995894432,124,a,a
2024-02-17 15:29:21.970854,1,0.05807999998796731,125,space,space
2024-02-17 15:29:22.523743,1,0.5264304999727756,126,b,b
2024-02-17 15:29:22.618140,1,0.07235690002562478,127,a,a
2024-02-17 15:29:22.735762,1,0.0902866999967955,128,h,h
2024-02-17 15:29:22.805812,1,0.0440451999893412,129,r,r
2024-02-17 15:29:22.889955,1,0.040869199961889535,130,a,a
2024-02-17 15:29:22.973050,1,0.041826600034255534,131,i,i
2024-02-17 15:29:23.035050,1,0.03756570001132786,132,n,n
2024-02-17 15:29:23.285400,1,0.22037410002667457,133,space,space
2024-02-17 15:29:23.506355,1,0.1946981000364758,134,m,m
2024-02-17 15:29:23.588857,1,0.05978850001702085,135,o,o
2024-02-17 15:29:23.720928,1,0.10679930000333115,136,r,r
2024-02-17 15:29:23.830807,1,0.08589200000278652,137,o,o
2024-02-17 15:29:24.037662,1,0.17552619997877628,138,c,c
2024-02-17 15:29:24.167825,1,0.10570690000895411,139,c,c
2024-02-17 15:29:24.234148,1,0.03854209999553859,140,o,o
2024-02-17 15:29:24.411014,1,0.14656770002329722,141,space,space
2024-02-17 15:29:24.717969,1,0.2891931000049226,142,b,b
2024-02-17 15:29:24.803569,1,0.05747150001116097,143,u,i
2024-02-17 15:29:24.879559,1,0.04859770002076402,143,u,r
2024-02-17 15:29:25.288968,1,0.37506330001633614,143,u,u
2024-02-17 15:29:25.397989,1,0.08558000001357868,144,r,r
2024-02-17 15:29:25.492548,1,0.06279970001196489,145,k,k
2024-02-17 15:29:25.639266,1,0.12675799999851733,146,i,u
2024-02-17 15:29:26.138965,1,0.47683379997033626,146,i,i
2024-02-17 15:29:26.221457,1,0.057824799965601414,147,n,n
2024-02-17 15:29:26.312508,1,0.06382949999533594,148,a,a
2024-02-17 15:29:26.424137,1,0.07641160005005077,149,space,space
2024-02-17 15:29:26.658989,1,0.213712900003884,150,l,a
2024-02-17 15:29:26.753336,1,0.0743207999621518,150,l,l
2024-02-17 15:29:26.870083,1,0.09064249997027218,151,a,a
2024-02-17 15:29:27.096228,1,0.20040470000822097,152,t,t
2024-02-17 15:29:27.400064,1,0.2867606999934651,153,v,w
2024-02-17 15:29:27.670685,1,0.24132839997764677,153,v,v
2024-02-17 15:29:27.793579,1,0.09720709995599464,154,i,i
2024-02-17 15:29:27.893175,1,0.08055690000765026,155,a,a
2024-02-17 15:29:27.988970,1,0.05366269999649376,156,space,space
2024-02-17 15:29:28.187764,1,0.17474389995913953,157,u,u
2024-02-17 15:29:28.357774,1,0.1451404999825172,158,k,k
2024-02-17 15:29:28.501092,1,0.1217871000408195,159,space,space
2024-02-17 15:29:28.811940,1,0.2822640999802388,160,i,i
2024-02-17 15:29:28.911276,1,0.08169740001903847,161,r,r
2024-02-17 15:29:28.975237,1,0.04558590002125129,162,a,a
2024-02-17 15:29:29.162144,1,0.14666130003752187,163,q,w
2024-02-17 15:29:29.451757,1,0.27228479995392263,163,q,space
2024-02-17 15:29:29.672889,1,0.19271490001119673,163,q,p
2024-02-17 15:29:30.170414,1,0.4735808999976143,163,q,q
2024-02-17 15:29:30.293342,1,0.09642050002003089,164,space,space
2024-02-17 15:29:30.399775,1,0.08613299997523427,165,p,p
2024-02-17 15:29:30.520037,1,0.08931599999777973,166,a,a
2024-02-17 15:29:30.654784,1,0.10862519999500364,167,k,r
2024-02-17 15:29:30.888054,1,0.2091562999994494,167,k,k
2024-02-17 15:29:30.987253,1,0.07327609998174012,168,i,i
2024-02-17 15:29:31.049317,1,0.0358412999776192,169,s,s
2024-02-17 15:29:31.156932,1,0.07461730000795797,170,t,t
2024-02-17 15:29:31.829738,1,0.6497246000217274,171,a,a
2024-02-17 15:29:31.916218,1,0.052574099972844124,172,n,n
2024-02-17 15:29:32.068281,1,0.11839239997789264,173,space,space
2024-02-17 15:29:32.280763,1,0.18417130003217608,174,b,b
2024-02-17 15:29:32.383079,1,0.08573130000149831,175,e,e
2024-02-17 15:29:32.470706,1,0.056680799985770136,176,n,n
2024-02-17 15:29:32.560760,1,0.062137599976267666,177,i,i
2024-02-17 15:29:32.673778,1,0.07648370001697913,178,n,n
2024-02-17 15:29:32.960067,1,0.26419709995388985,179,space,space
2024-02-17 15:29:33.177031,1,0.19721849996130913,180,l,l
2024-02-17 15:29:33.311032,1,0.11360829998739064,181,i,i
2024-02-17 15:29:33.421909,1,0.09162190003553405,182,t,t
2024-02-17 15:29:33.487768,1,0.03999479999765754,183,h,h
2024-02-17 15:29:33.575029,1,0.04193870001472533,184,u,i
2024-02-17 15:29:33.816028,1,0.20180479995906353,184,u,u
2024-02-17 15:29:34.081595,1,0.23491669999202713,185,a,a
2024-02-17 15:29:34.855819,1,0.7593248999910429,186,n,n
2024-02-17 15:29:35.212264,1,0.33230960002401844,187,i,a
2024-02-17 15:29:35.308711,1,0.07736779999686405,187,i,i
2024-02-17 15:29:35.646772,1,0.31412860000273213,188,a,a
2024-02-17 15:29:35.754156,1,0.08952019998105243,189,space,space
2024-02-17 15:29:36.409363,1,0.6282020999933593,190,c,c
2024-02-17 15:29:36.446363,1,0.015136900008656085,191,o,o
2024-02-17 15:29:36.527368,1,0.044727300002705306,192,n,n
2024-02-17 15:29:36.624365,1,0.056868999963626266,193,g,g
2024-02-17 15:29:36.724367,1,0.059583700029179454,194,o,o
2024-02-17 15:29:37.144362,1,0.39702390000456944,195,space,space
2024-02-17 15:29:37.326697,1,0.16274519998114556,196,m,m
2024-02-17 15:29:37.450413,1,0.10259639995638281,197,e,e
2024-02-17 15:29:37.589376,1,0.10895520000485703,198,x,x
2024-02-17 15:29:37.695338,1,0.08132939995266497,199,i,i
2024-02-17 15:29:37.778598,1,0.04872730001807213,200,c,c
2024-02-17 15:29:37.942203,1,0.12562700000125915,201,o,o
2024-02-17 15:29:38.165934,1,0.20219209999777377,202,space,space
2024-02-17 15:29:38.502896,1,0.3047820999636315,203,v,b
2024-02-17 15:29:38.599398,1,0.06794540002010763,203,v,a
2024-02-17 15:29:38.731970,1,0.10021890001371503,203,v,n
2024-02-17 15:29:39.586792,1,0.8169756999704987,203,v,v
2024-02-17 15:29:40.136283,1,0.5215855999849737,204,a,a
2024-02-17 15:29:40.400947,1,0.23640059999888763,205,n,n
2024-02-17 15:29:40.585386,1,0.15391719999024644,206,u,u
2024-02-17 15:29:40.954514,1,0.3398035999853164,207,a,a
2024-02-17 15:29:41.095988,1,0.11448200000450015,208,t,t
2024-02-17 15:29:41.341237,1,0.22648760001175106,209,u,u
2024-02-17 15:29:41.485304,1,0.12087129999417812,210,space,space
2024-02-17 15:29:41.677382,1,0.16264009999576956,211,k,k
2024-02-17 15:29:41.777038,1,0.07952779997140169,212,a,a
2024-02-17 15:29:42.024445,1,0.2265631000045687,213,z,z
2024-02-17 15:29:42.171876,1,0.12441520002903417,214,a,a
2024-02-17 15:29:42.275490,1,0.07773890002863482,215,k,h
2024-02-17 15:29:42.405026,1,0.10730979999061674,215,k,a
2024-02-17 15:29:42.624179,1,0.1932162999873981,215,k,k
2024-02-17 15:29:42.865165,1,0.2169620999484323,216,h,h
2024-02-17 15:29:43.153837,1,0.24965989997144789,217,s,s
2024-02-17 15:29:43.416875,1,0.23554550000699237,218,t,t
2024-02-17 15:29:43.499965,1,0.06732610001927242,219,a,a
2024-02-17 15:29:43.700635,1,0.1661601000232622,220,n,n
2024-02-17 15:29:43.929644,1,0.19785970001248643,221,space,space
2024-02-17 15:29:44.106279,1,0.15535640000598505,222,b,b
2024-02-17 15:29:44.191281,1,0.05933280003955588,223,a,a
2024-02-17 15:29:44.311270,1,0.07650129997637123,224,r,r
2024-02-17 15:29:44.724331,1,0.3925481999758631,225,b,b
2024-02-17 15:29:44.796120,1,0.0466704000136815,226,a,a
2024-02-17 15:29:44.869604,1,0.035398999985773116,227,d,s
2024-02-17 15:29:45.139780,1,0.23795859998790547,227,d,d
2024-02-17 15:29:45.234415,1,0.06817440001759678,228,o,o
2024-02-17 15:29:45.316178,1,0.05027790000895038,229,s,s
2024-02-17 15:29:45.447358,1,0.09660849999636412,230,space,space
2024-02-17 15:29:45.634603,1,0.16985499998554587,231,a,a
2024-02-17 15:29:45.703204,1,0.03236369998194277,232,n,n
2024-02-17 15:29:45.799121,1,0.06463029998121783,233,d,d
2024-02-17 15:29:46.022789,1,0.19012639997527003,234,o,o
2024-02-17 15:29:46.282300,1,0.2345359000028111,235,r,o
2024-02-17 15:29:46.461145,1,0.14534440002171323,235,r,r
2024-02-17 15:29:46.627100,1,0.14434640004765242,236,r,r
2024-02-17 15:29:47.245942,1,0.5966958000208251,237,a,r
2024-02-17 15:29:47.326941,1,0.06152350001502782,237,a,a
2024-02-17 15:29:48.010110,2,0.6401414000429213,0,l,l
2024-02-17 15:29:48.204192,2,0.17089870001655072,1,e,e
2024-02-17 15:29:48.363165,2,0.12940149998757988,2,s,s
2024-02-17 15:29:48.481971,2,0.09922609996283427,3,o,o
2024-02-17 15:29:48.592069,2,0.09258729999419302,4,t,t
2024-02-17 15:29:48.716527,2,0.10036099998978898,5,h,h
2024-02-17 15:29:48.989113,2,0.2572146999882534,6,o,o
2024-02-17 15:29:49.151797,2,0.1358365000342019,7,space,space
2024-02-17 15:29:49.351930,2,0.186457599978894,8,r,r
2024-02-17 15:29:49.463868,2,0.09793369995895773,9,o,o
2024-02-17 15:29:49.543943,2,0.06113940000068396,10,m,m
2024-02-17 15:29:49.656176,2,0.0721491000149399,11,a,a
2024-02-17 15:29:49.744928,2,0.0617566000437364,12,n,n
2024-02-17 15:29:49.838581,2,0.07043099997099489,13,i,o
2024-02-17 15:29:50.130533,2,0.26459380000596866,13,i,i
2024-02-17 15:29:50.237702,2,0.08769350004149601,14,a,a
2024-02-17 15:29:50.416583,2,0.15037129999836907,15,space,space
2024-02-17 15:29:50.708243,2,0.2752559000509791,16,a,e
2024-02-17 15:29:50.996540,2,0.26365809998242185,16,a,a
2024-02-17 15:29:51.132390,2,0.11593279999215156,17,u,u
2024-02-17 15:29:51.228655,2,0.0794968000263907,18,s,s
2024-02-17 15:29:51.359282,2,0.10774469998432323,19,t,t
2024-02-17 15:29:51.493624,2,0.11075750004965812,20,r,r
2024-02-17 15:29:51.561163,2,0.045149799960199744,21,a,a
2024-02-17 15:29:51.779504,2,0.1762948000105098,22,l,l
2024-02-17 15:29:51.937559,2,0.13852310000220314,23,i,i
2024-02-17 15:29:52.098222,2,0.13140969997039065,24,a,a
2024-02-17 15:29:52.260446,2,0.14380620000883937,25,space,space
2024-02-17 15:29:52.639762,2,0.356348600005731,26,h,h
2024-02-17 15:29:52.757786,2,0.09094839997123927,27,u,u
2024-02-17 15:29:52.847781,2,0.06400640000356361,28,n,n
2024-02-17 15:29:52.891785,2,0.007154600054491311,29,g,g
2024-02-17 15:29:53.023368,2,0.10636430000886321,30,a,a
2024-02-17 15:29:53.085391,2,0.03562260000035167,31,r,r
2024-02-17 15:29:53.258149,2,0.1387084000161849,32,y,y
2024-02-17 15:29:53.569673,2,0.286863400018774,33,space,space
2024-02-17 15:29:53.927006,2,0.32711539999581873,34,b,b
2024-02-17 15:29:54.164706,2,0.21400450001237914,35,h,j
2024-02-17 15:29:54.564075,2,0.3803591000032611,35,h,h
2024-02-17 15:29:54.676311,2,0.0925701999804005,36,u,h
2024-02-17 15:29:54.982438,2,0.2822872000397183,36,u,i
2024-02-17 15:29:55.128343,2,0.12892399996053427,36,u,r
2024-02-17 15:29:55.210903,2,0.06045809999341145,36,u,a
2024-02-17 15:29:55.457236,2,0.22011599998222664,36,u,u
2024-02-17 15:29:55.607841,2,0.12343289999989793,37,t,r
2024-02-17 15:29:55.647663,2,0.014086099981795996,37,t,a
2024-02-17 15:29:55.851543,2,0.18155370000749826,37,t,t
2024-02-17 15:29:56.205633,2,0.33856300002662465,38,a,a
2024-02-17 15:29:56.342923,2,0.10962609999114648,39,n,n
2024-02-17 15:29:56.453699,2,0.08723429997917265,40,space,space
2024-02-17 15:29:56.987964,2,0.5212975000031292,41,g,b
2024-02-17 15:29:57.229545,2,0.21214290003990754,41,g,h
2024-02-17 15:29:57.428693,2,0.1774604999809526,41,g,i
2024-02-17 15:29:57.961243,2,0.5100059999967925,41,g,g
2024-02-17 15:29:58.071750,2,0.08752140001161024,42,u,u
2024-02-17 15:29:58.220963,2,0.12052080000285059,43,i,i
2024-02-17 15:29:58.285979,2,0.05182779999449849,44,n,n
2024-02-17 15:29:58.762406,2,0.44319459999678656,45,e,e
2024-02-17 15:29:58.905873,2,0.12164060003124177,46,a,a
2024-02-17 15:29:59.014287,2,0.08007019996875897,47,space,space
2024-02-17 15:29:59.207914,2,0.17383210000116378,48,z,z
2024-02-17 15:29:59.400494,2,0.1664339000126347,49,a,a
2024-02-17 15:29:59.497807,2,0.08053840004140511,50,m,m
2024-02-17 15:29:59.673274,2,0.15502990002278239,51,b,b
2024-02-17 15:29:59.792533,2,0.09135740000056103,52,i,i
2024-02-17 15:29:59.888589,2,0.06920590001391247,53,a,a
2024-02-17 15:30:00.003853,2,0.08550170005764812,54,space,space
2024-02-17 15:30:00.165056,2,0.13045310002053156,55,n,n
2024-02-17 15:30:00.224127,2,0.04032670002197847,56,i,i
2024-02-17 15:30:00.293267,2,0.039442400040570647,57,g,g
2024-02-17 15:30:00.394035,2,0.07373969996115193,58,e,e
2024-02-17 15:30:00.459299,2,0.040887099981773645,59,r,r
2024-02-17 15:30:00.608927,2,0.12116699997568503,60,space,space
2024-02-17 15:30:00.800410,2,0.16577209997922182,61,m,m
2024-02-17 15:30:00.855199,2,0.03784940001787618,62,e,e
2024-02-17 15:30:01.022781,2,0.11932529998011887,63,x,x
2024-02-17 15:30:01.195561,2,0.14402780000818893,64,i,i
2024-02-17 15:30:01.306238,2,0.08744560001650825,65,c,c
2024-02-17 15:30:01.683986,2,0.3497370000113733,66,o,o
2024-02-17 15:30:01.807226,2,0.10578610002994537,67,space,space
2024-02-17 15:30:01.999844,2,0.1650658999569714,68,s,s
2024-02-17 15:30:02.079341,2,0.061482899996917695,69,u,u
2024-02-17 15:30:02.204514,2,0.10135329997865483,70,d,d
2024-02-17 15:30:02.283466,2,0.048766500025521964,71,a,a
2024-02-17 15:30:02.562322,2,0.2420385000295937,72,n,n
2024-02-17 15:30:02.740082,2,0.15503010002430528,73,space,space
2024-02-17 15:30:02.910036,2,0.14237179997144267,74,u,u
2024-02-17 15:30:03.279112,2,0.3440249999985099,75,a,a
2024-02-17 15:30:03.498983,2,0.1969180000014603,76,e,e
2024-02-17 15:30:03.784322,2,0.2658046000287868,77,space,space
2024-02-17 15:30:04.112751,2,0.31117160001304,78,s,s
2024-02-17 15:30:04.627552,2,0.4926102999597788,79,w,w
2024-02-17 15:30:04.720622,2,0.06817430001683533,80,i,i
2024-02-17 15:30:04.848411,2,0.09663970000110567,81,t,s
2024-02-17 15:30:05.112300,2,0.24490039999363944,81,t,t
2024-02-17 15:30:05.419310,2,0.2845839000074193,82,z,z
2024-02-17 15:30:05.853051,2,0.41813129995716736,83,e,e
2024-02-17 15:30:05.910984,2,0.04230309999547899,84,r,r
2024-02-17 15:30:06.028115,2,0.07264430000213906,85,l,l
2024-02-17 15:30:06.087703,2,0.035174300021026284,86,a,a
2024-02-17 15:30:06.212379,2,0.0906659999745898,87,n,n
2024-02-17 15:30:06.257921,2,0.02269240003079176,88,d,d
2024-02-17 15:30:06.387834,2,0.09969719999935478,89,space,space
2024-02-17 15:30:06.628048,2,0.22697619994869456,90,h,h
2024-02-17 15:30:06.856091,2,0.20384729997022077,91,o,o
2024-02-17 15:30:06.978816,2,0.09375940001336858,92,n,n
2024-02-17 15:30:07.093886,2,0.09151629998814315,93,d,d
2024-02-17 15:30:07.263995,2,0.14494359999662265,94,u,u
2024-02-17 15:30:07.340826,2,0.055226100026629865,95,r,r
2024-02-17 15:30:07.563770,2,0.1914546000189148,96,a,a
2024-02-17 15:30:07.679677,2,0.09454680001363158,97,s,s
2024-02-17 15:30:07.831724,2,0.1293444000184536,98,space,space
2024-02-17 15:30:08.111384,2,0.2591946999891661,99,i,i
2024-02-17 15:30:08.184271,2,0.04815469996538013,100,s,s
2024-02-17 15:30:08.566580,2,0.3447703999700025,101,r,r
2024-02-17 15:30:08.646165,2,0.059734299953561276,102,a,a
2024-02-17 15:30:08.855379,2,0.18437799997627735,103,e,l
2024-02-17 15:30:08.975319,2,0.1060686000273563,103,e,e
2024-02-17 15:30:09.257423,2,0.2543112999992445,104,l,l
2024-02-17 15:30:09.289802,2,0.0035988999879918993,105,space,e
2024-02-17 15:30:09.450939,2,0.13017359998775646,105,space,l
2024-02-17 15:30:09.558158,2,0.08882780000567436,105,space,space
2024-02-17 15:30:09.835421,2,0.24848810001276433,106,u,u
2024-02-17 15:30:10.003340,2,0.15066480002133176,107,k,k
2024-02-17 15:30:10.050765,2,0.03144689998589456,108,r,r
2024-02-17 15:30:10.128867,2,0.05609990004450083,109,a,a
2024-02-17 15:30:10.198238,2,0.043859100027475506,110,i,i
2024-02-17 15:30:10.274556,2,0.03469800000311807,111,n,n
2024-02-17 15:30:10.491409,2,0.18720879999455065,112,e,e
2024-02-17 15:30:10.592535,2,0.07249039999442175,113,space,space
2024-02-17 15:30:10.948246,2,0.3287146000075154,114,i,i
2024-02-17 15:30:11.030746,2,0.060245800006669015,115,n,n
2024-02-17 15:30:11.084747,2,0.028525599977001548,116,d,d
2024-02-17 15:30:11.188142,2,0.06667179998476058,117,o,o
2024-02-17 15:30:11.281746,2,0.07903239998267964,118,n,s
2024-02-17 15:30:11.486136,2,0.181919900001958,118,n,n
2024-02-17 15:30:11.704092,2,0.2016223999671638,119,e,e
2024-02-17 15:30:11.887197,2,0.1678544000023976,120,s,s
2024-02-17 15:30:11.988107,2,0.0850992999621667,121,i,i
2024-02-17 15:30:12.084911,2,0.081457499996759,122,a,a
2024-02-17 15:30:12.194965,2,0.07388320000609383,123,space,space
2024-02-17 15:30:12.688196,2,0.4694807999767363,124,g,g
2024-02-17 15:30:12.832055,2,0.12873310002032667,125,r,r
2024-02-17 15:30:12.897680,2,0.04470869997749105,126,e,e
2024-02-17 15:30:12.968587,2,0.03008100000442937,127,n,n
2024-02-17 15:30:13.082663,2,0.0767043000087142,128,a,a
2024-02-17 15:30:13.663741,2,0.5601754999952391,129,d,d
2024-02-17 15:30:13.798817,2,0.11292739998316392,130,a,a
2024-02-17 15:30:14.033975,2,0.2138221000204794,131,space,space
2024-02-17 15:30:14.248914,2,0.19569459999911487,132,g,g
2024-02-17 15:30:14.431230,2,0.16177039995091036,133,a,a
2024-02-17 15:30:14.498928,2,0.04533140000421554,134,b,b
2024-02-17 15:30:14.619690,2,0.09685460000764579,135,o,o
2024-02-17 15:30:14.782570,2,0.14604490000056103,136,n,n
2024-02-17 15:30:14.936758,2,0.13350990001345053,137,space,space
2024-02-17 15:30:15.120059,2,0.16708769998513162,138,b,b
2024-02-17 15:30:15.184289,2,0.047554299992043525,139,a,a
2024-02-17 15:30:15.338873,2,0.11557080002967268,140,r,r
2024-02-17 15:30:15.490416,2,0.1372304999968037,141,b,a
2024-02-17 15:30:15.609415,2,0.08886359998723492,141,b,b
2024-02-17 15:30:15.733923,2,0.09756470000138506,142,a,a
2024-02-17 15:30:15.833922,2,0.08042279997607693,143,d,s
2024-02-17 15:30:16.037977,2,0.1853537000133656,143,d,d
2024-02-17 15:30:16.189235,2,0.13625430001411587,144,o,o
2024-02-17 15:30:16.297191,2,0.07667289994424209,145,s,s
2024-02-17 15:30:16.515321,2,0.19512839999515563,146,space,s
2024-02-17 15:30:16.691271,2,0.15535920002730563,146,space,space
2024-02-17 15:30:16.857102,2,0.1363128999946639,147,k,k
2024-02-17 15:30:16.997528,2,0.11066289996961132,148,u,u
2024-02-17 15:30:17.117445,2,0.09756319998996332,149,w,w
2024-02-17 15:30:17.256899,2,0.11949919996550307,150,a,a
2024-02-17 15:30:17.417647,2,0.13087380002252758,151,i,i
2024-02-17 15:30:17.595486,2,0.1587889000074938,152,t,t
2024-02-17 15:30:17.713461,2,0.09289779997197911,153,space,space
2024-02-17 15:30:17.953462,2,0.2166774000506848,154,m,m
2024-02-17 15:30:18.070792,2,0.09964240004774183,155,o,o
2024-02-17 15:30:18.179148,2,0.09214179997798055,156,z,z
2024-02-17 15:30:18.404589,2,0.20056189998285845,157,a,a
2024-02-17 15:30:18.516310,2,0.0956117999739945,158,m,m
2024-02-17 15:30:18.704692,2,0.1674178999965079,159,b,b
2024-02-17 15:30:18.832657,2,0.1119069000124,160,i,i
2024-02-17 15:30:19.216281,2,0.36218880000524223,161,q,u
2024-02-17 15:30:19.514095,2,0.2770893999841064,161,q,q
2024-02-17 15:30:19.602294,2,0.06343159999232739,162,u,u
2024-02-17 15:30:19.685942,2,0.046214699978008866,163,e,e
2024-02-17 15:30:19.799875,2,0.07888539996929467,164,space,space
2024-02-17 15:30:20.213180,2,0.39343430002918467,165,a,a
2024-02-17 15:30:20.337648,2,0.10017049999441952,166,n,n
2024-02-17 15:30:20.432675,2,0.07808910001767799,167,d,d
2024-02-17 15:30:20.556566,2,0.08106380002573133,168,o,o
2024-02-17 15:30:20.706248,2,0.11895929998718202,169,r,r
2024-02-17 15:30:20.973487,2,0.25325380003778264,170,r,r
2024-02-17 15:30:21.099274,2,0.09424459998263046,171,a,a
2024-02-17 15:30:21.225960,2,0.10511070000939071,172,space,space
2024-02-17 15:30:21.559750,2,0.3058605999685824,173,a,a
2024-02-17 15:30:21.683195,2,0.09520229999907315,174,r,r
2024-02-17 15:30:21.874821,2,0.17034369998145849,175,g,g
2024-02-17 15:30:21.940209,2,0.0353936999454163,176,e,e
2024-02-17 15:30:22.000994,2,0.026320000004488975,177,n,n
2024-02-17 15:30:22.118312,2,0.07741349999560043,178,t,t
2024-02-17 15:30:22.276608,2,0.13861839997116476,179,i,i
2024-02-17 15:30:22.383734,2,0.08000750001519918,180,n,n
2024-02-17 15:30:22.549723,2,0.14465029997518286,181,a,e
2024-02-17 15:30:22.680925,2,0.10981080000055954,181,a,space
2024-02-17 15:30:22.938916,2,0.2338846999919042,181,a,o
2024-02-17 15:30:23.287420,2,0.3324770000181161,181,a,a
2024-02-17 15:30:23.458714,2,0.15385669999523088,182,space,space
2024-02-17 15:30:23.590816,2,0.1027965999674052,183,o,o
2024-02-17 15:30:23.652180,2,0.030098299961537123,184,m,m
2024-02-17 15:30:23.758601,2,0.06631130003370345,185,a,e
2024-02-17 15:30:23.866868,2,0.07784889999311417,185,a,n
2024-02-17 15:30:23.940727,2,0.05315450002672151,185,a,a
2024-02-17 15:30:24.072092,2,0.0991667999769561,186,n,space
2024-02-17 15:30:24.551493,2,0.4632440999848768,186,n,n
2024-02-17 15:30:24.782697,2,0.2114088999805972,187,space,space
2024-02-17 15:30:25.252761,2,0.44784909998998046,188,g,g
2024-02-17 15:30:25.363933,2,0.09224949998315424,189,a,a
2024-02-17 15:30:25.438267,2,0.04953860002569854,190,m,m
2024-02-17 15:30:25.617526,2,0.14400400000158697,191,b,b
2024-02-17 15:30:26.012173,2,0.37420369999017566,192,i,i
2024-02-17 15:30:26.450985,2,0.4119734999840148,193,a,a
2024-02-17 15:30:26.573132,2,0.10142580000683665,194,space,space
2024-02-17 15:30:26.924657,2,0.3195793000049889,195,l,l
2024-02-17 15:30:27.163033,2,0.20812510000541806,196,i,i
2024-02-17 15:30:27.386193,2,0.1978631999809295,197,t,t
2024-02-17 15:30:27.458624,2,0.0529493999783881,198,h,h
2024-02-17 15:30:28.139896,2,0.6481054000323638,199,u,h
2024-02-17 15:30:28.234287,2,0.07874879997689277,199,u,u
2024-02-17 15:30:28.665122,2,0.4096303000114858,200,a,a
2024-02-17 15:30:29.010060,2,0.3210846000001766,201,n,n
2024-02-17 15:30:29.193628,2,0.1542291000369005,202,i,a
2024-02-17 15:30:29.492242,2,0.2693596000317484,202,i,i
2024-02-17 15:30:29.654269,2,0.13192369998432696,203,a,a
2024-02-17 15:30:29.930427,2,0.25854350003646687,204,space,space
2024-02-17 15:30:30.280566,2,0.32587190001504496,205,b,b
2024-02-17 15:30:30.357382,2,0.049019500031135976,206,r,r
2024-02-17 15:30:30.468250,2,0.07784159999573603,207,u,u
2024-02-17 15:30:30.567267,2,0.0786097000236623,208,n,n
2024-02-17 15:30:30.683029,2,0.07403650000924245,209,e,e
2024-02-17 15:30:30.803454,2,0.09816369996406138,210,i,i
2024-02-17 15:30:31.080109,2,0.25840679998509586,211,space,t
2024-02-17 15:30:31.371145,2,0.2652926000300795,211,space,space
2024-02-17 15:30:31.594690,2,0.2052613000269048,212,a,a
2024-02-17 15:30:31.674288,2,0.05103420000523329,213,n,n
2024-02-17 15:30:31.901522,2,0.1935885000275448,214,g,g
2024-02-17 15:30:31.981342,2,0.058475300029385835,215,o,o
2024-02-17 15:30:32.139101,2,0.13144119997741655,216,l,l
2024-02-17 15:30:32.290085,2,0.1337247000192292,217,a,a
2024-02-17 15:30:32.376695,2,0.06940709997434169,218,space,space
2024-02-17 15:30:32.984274,2,0.5757275000214577,219,t,t
2024-02-17 15:30:33.100719,2,0.09437599999364465,220,u,u
2024-02-17 15:30:33.225149,2,0.10205719998339191,221,v,v
2024-02-17 15:30:33.495006,2,0.25536720000673085,222,a,a
2024-02-17 15:30:33.600592,2,0.07783039996866137,223,l,l
2024-02-17 15:30:33.810127,2,0.18684209999628365,224,u,u
2024-02-17 15:30:34.073027,2,0.23326720000477508,225,space,space
2024-02-17 15:30:34.301468,2,0.2119564000167884,226,p,p
2024-02-17 15:30:34.410546,2,0.08755840000230819,227,a,a
2024-02-17 15:30:34.521609,2,0.08094239997444674,228,k,k
2024-02-17 15:30:34.698770,2,0.15953050000825897,229,i,i
2024-02-17 15:30:34.783204,2,0.06032500002766028,230,s,s
2024-02-17 15:30:34.940531,2,0.1189126999815926,231,t,t
2024-02-17 15:30:35.017415,2,0.04401519999373704,232,a,a
2024-02-17 15:30:35.186176,2,0.12770209996961057,233,n,n
2024-02-17 15:30:36.120898,3,0.9141849000006914,0,m,m
2024-02-17 15:30:36.312854,3,0.17257880000397563,1,e,e
2024-02-17 15:30:36.495475,3,0.15544830000726506,2,x,x
2024-02-17 15:30:36.605155,3,0.08159299998078495,3,i,o
2024-02-17 15:30:36.716697,3,0.0925954999984242,3,i,c
2024-02-17 15:30:37.363418,3,0.6230723999906331,3,i,i
2024-02-17 15:30:37.446094,3,0.05520430003525689,4,c,c
2024-02-17 15:30:37.535069,3,0.05852930003311485,5,o,o
2024-02-17 15:30:37.663520,3,0.10419700003694743,6,space,space
2024-02-17 15:30:38.105907,3,0.41666370001621544,7,u,u
2024-02-17 15:30:38.541657,3,0.41824269999051467,8,r,r
2024-02-17 15:30:38.726133,3,0.16957920003915206,9,u,g
2024-02-17 15:30:38.796307,3,0.039127100026234984,9,u,u
2024-02-17 15:30:39.260046,3,0.4338640000205487,10,g,g
2024-02-17 15:30:39.373411,3,0.09939250000752509,11,u,u
2024-02-17 15:30:39.468572,3,0.07809189998079091,12,a,a
2024-02-17 15:30:39.945393,3,0.4547387999482453,13,y,y
2024-02-17 15:30:40.186394,3,0.21251579996896908,14,space,space
2024-02-17 15:30:40.465625,3,0.2588411999749951,15,q,q
2024-02-17 15:30:40.641695,3,0.15020069997990504,16,a,capslock
2024-02-17 15:30:40.791088,3,0.1341291000135243,16,a,t
2024-02-17 15:30:40.965837,3,0.158584900025744,16,a,a
2024-02-17 15:30:41.464688,3,0.47433669999009,17,t,t
2024-02-17 15:30:41.762739,3,0.2715067999670282,18,a,a
2024-02-17 15:30:41.855573,3,0.06382429995574057,19,r,r
2024-02-17 15:30:41.989357,3,0.11505200003739446,20,space,space
2024-02-17 15:30:42.189829,3,0.1830012000282295,21,n,n
2024-02-17 15:30:42.301281,3,0.09440709999762475,22,i,i
2024-02-17 15:30:42.326624,3,0.0032005999819375575,23,g,g
2024-02-17 15:30:42.441822,3,0.0993466000072658,24,e,e
2024-02-17 15:30:42.510823,3,0.053559400024823844,25,r,r
2024-02-17 15:30:42.662844,3,0.11973709997255355,26,space,space
2024-02-17 15:30:42.854206,3,0.16294069995637983,27,l,l
2024-02-17 15:30:42.991453,3,0.11732109996955842,28,e,s
2024-02-17 15:30:43.163319,3,0.1556154999998398,28,e,o
2024-02-17 15:30:43.502984,3,0.3117975000059232,28,e,s
2024-02-17 15:30:43.699648,3,0.17480549996253103,28,e,e
2024-02-17 15:30:43.892515,3,0.16790090000722557,29,s,s
2024-02-17 15:30:44.001251,3,0.09319479996338487,30,o,o
2024-02-17 15:30:44.126296,3,0.10178789997007698,31,t,t
2024-02-17 15:30:44.250294,3,0.10953369998605922,32,h,h
2024-02-17 15:30:44.400677,3,0.12629159999778494,33,o,o
2024-02-17 15:30:44.578125,3,0.15340730000752956,34,space,space
2024-02-17 15:30:44.834021,3,0.24277489999076352,35,m,m
2024-02-17 15:30:44.977448,3,0.11933149996912107,36,o,o
2024-02-17 15:30:45.169402,3,0.17776940000476316,37,l,f
2024-02-17 15:30:45.366753,3,0.1761621999903582,37,l,l
2024-02-17 15:30:45.644921,3,0.2539201000472531,38,d,d
2024-02-17 15:30:45.867947,3,0.19404120004037395,39,o,o
2024-02-17 15:30:45.985676,3,0.09415930003160611,40,v,v
2024-02-17 15:30:46.191194,3,0.18319830001564696,41,a,a
2024-02-17 15:30:46.328476,3,0.12020770000526682,42,space,space
2024-02-17 15:30:46.996208,3,0.6380201000138186,43,m,m
2024-02-17 15:30:47.042389,3,0.01696589996572584,44,a,a
2024-02-17 15:30:47.189160,3,0.12916130002122372,45,u,u
2024-02-17 15:30:47.256223,3,0.04731970001012087,46,r,t
2024-02-17 15:30:47.639295,3,0.34474949998548254,46,r,r
2024-02-17 15:30:47.739371,3,0.08119759999681264,47,i,i
2024-02-17 15:30:47.822989,3,0.043751300021540374,48,t,t
2024-02-17 15:30:48.225523,3,0.36449910001829267,49,a,h
2024-02-17 15:30:48.534659,3,0.29315619997214526,49,a,a
2024-02-17 15:30:48.610518,3,0.05114979995414615,50,n,n
2024-02-17 15:30:48.714242,3,0.07053649995941669,51,i,i
2024-02-17 15:30:48.846812,3,0.10513210005592555,52,a,a
2024-02-17 15:30:48.934371,3,0.05936510005267337,53,space,space
2024-02-17 15:30:49.434236,3,0.47345229994971305,54,c,c
2024-02-17 15:30:49.675490,3,0.21681519999401644,55,u,b
2024-02-17 15:30:50.010362,3,0.317565800040029,55,u,u
2024-02-17 15:30:50.091375,3,0.06547099997987971,56,b,b
2024-02-17 15:30:50.213653,3,0.0861295000067912,57,a,a
2024-02-17 15:30:50.333140,3,0.09202929999446496,58,space,space
2024-02-17 15:30:50.808383,3,0.4496950000175275,59,f,f
2024-02-17 15:30:50.918524,3,0.0934333999757655,60,i,i
2024-02-17 15:30:50.990498,3,0.04755640000803396,61,n,n
2024-02-17 15:30:51.116489,3,0.08851779997348785,62,l,d
2024-02-17 15:30:51.363275,3,0.2208958999835886,62,l,l
2024-02-17 15:30:51.568670,3,0.1755678000045009,63,a,a
2024-02-17 15:30:51.749158,3,0.15706699999282137,64,n,d
2024-02-17 15:30:51.908960,3,0.13352249999297783,64,n,n
2024-02-17 15:30:52.042213,3,0.11676880001323298,65,d,d
2024-02-17 15:30:52.267724,3,0.20860929996706545,66,space,space
2024-02-17 15:30:52.440137,3,0.14767929998924956,67,c,m
2024-02-17 15:30:52.748157,3,0.28868910000892356,67,c,c
2024-02-17 15:30:52.812154,3,0.03607610001927242,68,o,o
2024-02-17 15:30:52.920160,3,0.07443769997917116,69,n,n
2024-02-17 15:30:52.987164,3,0.044086000008974224,70,g,g
2024-02-17 15:30:53.124847,3,0.09696739999344572,71,o,space
2024-02-17 15:30:53.404246,3,0.2611705000163056,71,o,o
2024-02-17 15:30:53.551229,3,0.12490059999981895,72,space,space
2024-02-17 15:30:53.846582,3,0.2709051999845542,73,p,p
2024-02-17 15:30:54.026522,3,0.15062349999789149,74,h,h
2024-02-17 15:30:54.138236,3,0.0950791000504978,75,i,i
2024-02-17 15:30:54.289875,3,0.13032779999775812,76,l,l
2024-02-17 15:30:54.418838,3,0.10916710004676133,77,i,l
2024-02-17 15:30:54.555105,3,0.11291650001658127,77,i,i
2024-02-17 15:30:55.028847,3,0.45210759999463335,78,p,p
2024-02-17 15:30:55.399759,3,0.35760909999953583,79,p,o
2024-02-17 15:30:55.708585,3,0.28201190003892407,79,p,p
2024-02-17 15:30:55.857106,3,0.1301740999915637,80,i,i
2024-02-17 15:30:55.931956,3,0.055740500043611974,81,n,n
2024-02-17 15:30:56.023984,3,0.0604831000091508,82,e,e
2024-02-17 15:30:56.216487,3,0.15468600002350286,83,s,s
2024-02-17 15:30:56.348657,3,0.10569180001039058,84,space,space
2024-02-17 15:30:56.979954,3,0.6028554000076838,85,t,t
2024-02-17 15:30:57.090930,3,0.09719349996885285,86,u,u
2024-02-17 15:30:57.308745,3,0.19920019997516647,87,v,c
2024-02-17 15:30:57.550115,3,0.22337520000291988,87,v,v
2024-02-17 15:30:57.698263,3,0.12193050002679229,88,a,a
2024-02-17 15:30:57.776068,3,0.048778199998196214,89,l,l
2024-02-17 15:30:57.950820,3,0.13856200000736862,90,u,u
2024-02-17 15:30:58.273725,3,0.2969388000201434,91,space,space
2024-02-17 15:30:58.600123,3,0.30672000005142763,92,m,m
2024-02-17 15:30:58.687206,3,0.060069300001487136,93,a,a
2024-02-17 15:30:58.772235,3,0.05921949999174103,94,l,l
2024-02-17 15:30:58.852770,3,0.040179000003263354,95,a,a
2024-02-17 15:30:59.321931,3,0.44354359997669235,96,y,y
2024-02-17 15:30:59.462262,3,0.11998790001962334,97,s,s
2024-02-17 15:30:59.733058,3,0.2567112999968231,98,i,i
2024-02-17 15:30:59.859933,3,0.09989589999895543,99,a,a
2024-02-17 15:30:59.939847,3,0.0626361999893561,100,space,space
2024-02-17 15:31:00.487203,3,0.5248256999766454,101,t,t
2024-02-17 15:31:00.563415,3,0.052498599980026484,102,a,a
2024-02-17 15:31:00.843145,3,0.24717869999585673,103,i,w
2024-02-17 15:31:01.040672,3,0.17957959999330342,103,i,o
2024-02-17 15:31:01.316327,3,0.2551589999930002,103,i,i
2024-02-17 15:31:01.461496,3,0.11786280001979321,104,w,w
2024-02-17 15:31:01.771426,3,0.29455379996215925,105,a,a
2024-02-17 15:31:01.923617,3,0.13001439999789,106,n,n
2024-02-17 15:31:02.064521,3,0.12130290002096444,107,space,space
2024-02-17 15:31:02.400012,3,0.307136100018397,108,h,m
2024-02-17 15:31:02.668794,3,0.24149409995879978,108,h,j
2024-02-17 15:31:03.098703,3,0.4040576000115834,108,h,h
2024-02-17 15:31:03.206080,3,0.07902770000509918,109,o,o
2024-02-17 15:31:03.330772,3,0.10368870000820607,110,n,n
2024-02-17 15:31:03.496576,3,0.13584639999317005,111,d,d
2024-02-17 15:31:04.191151,3,0.6813355999765918,112,u,u
2024-02-17 15:31:04.290584,3,0.07910969998920336,113,r,r
2024-02-17 15:31:04.366697,3,0.037341499992180616,114,a,a
2024-02-17 15:31:04.513579,3,0.1165556000196375,115,s,s
2024-02-17 15:31:04.707001,3,0.17878580000251532,116,space,space
2024-02-17 15:31:04.958038,3,0.2306838000076823,117,p,p
2024-02-17 15:31:05.065881,3,0.08798029995523393,118,a,a
2024-02-17 15:31:05.187028,3,0.09260299999732524,119,n,n
2024-02-17 15:31:05.242372,3,0.03167430002940819,120,a,a
2024-02-17 15:31:05.681561,3,0.40151389996754006,121,m,m
2024-02-17 15:31:05.795674,3,0.08474059996660799,122,a,a
2024-02-17 15:31:06.118752,3,0.3076376999961212,123,space,m
2024-02-17 15:31:06.276714,3,0.13148400001227856,123,space,space
2024-02-17 15:31:06.734681,3,0.43958290002774447,124,k,o
2024-02-17 15:31:07.017742,3,0.256544700008817,124,k,k
2024-02-17 15:31:07.125774,3,0.07977840001694858,125,o,o
2024-02-17 15:31:07.216775,3,0.07123659999342635,126,s,s
2024-02-17 15:31:07.726957,3,0.48098200000822544,127,o,o
2024-02-17 15:31:07.818726,3,0.07377959997393191,128,v,v
2024-02-17 15:31:07.958032,3,0.11144179996335879,129,o,space
2024-02-17 15:31:08.300402,3,0.32218150002881885,129,o,o
2024-02-17 15:31:08.455729,3,0.12735919997794554,130,space,space
2024-02-17 15:31:08.735127,3,0.2565675000078045,131,t,t
2024-02-17 15:31:08.920920,3,0.15885809995234013,132,u,u
2024-02-17 15:31:09.157434,3,0.21244809997733682,133,r,k
2024-02-17 15:31:09.354434,3,0.17686629999661818,133,r,e
2024-02-17 15:31:09.586442,3,0.2083310000016354,133,r,r
2024-02-17 15:31:09.697432,3,0.08552650001365691,134,k,k
2024-02-17 15:31:09.760436,3,0.032184000010602176,135,e,e
2024-02-17 15:31:09.906434,3,0.10843430005479604,136,y,y
2024-02-17 15:31:10.034961,3,0.10669400001643226,137,space,space
2024-02-17 15:31:10.397965,3,0.33623850002186373,138,s,s
2024-02-17 15:31:10.488637,3,0.06014770001638681,139,o,o
2024-02-17 15:31:10.574672,3,0.0432820999994874,140,m,m
2024-02-17 15:31:10.679249,3,0.06734750000759959,141,a,a
2024-02-17 15:31:10.803680,3,0.09186849999241531,142,l,l
2024-02-17 15:31:10.947117,3,0.11905380000825971,143,i,i
2024-02-17 15:31:11.033534,3,0.05385879997629672,144,a,a
2024-02-17 15:31:11.146694,3,0.08075480000115931,145,space,space
2024-02-17 15:31:11.485346,3,0.3065133000491187,146,a,a
2024-02-17 15:31:11.573020,3,0.06106419995194301,147,l,l
2024-02-17 15:31:11.669759,3,0.05400440003722906,148,g,g
2024-02-17 15:31:11.777565,3,0.08159879996674135,149,e,e
2024-02-17 15:31:11.834746,3,0.03907160001108423,150,r,r
2024-02-17 15:31:12.004136,3,0.13958529999945313,151,i,i
2024-02-17 15:31:12.077302,3,0.04873379995115101,152,a,a
2024-02-17 15:31:12.198248,3,0.08308579999720678,153,space,space
2024-02-17 15:31:12.520534,3,0.29178430000320077,154,a,a
2024-02-17 15:31:12.705203,3,0.1597870999830775,155,u,u
2024-02-17 15:31:12.772556,3,0.04315799998585135,156,s,s
2024-02-17 15:31:12.922070,3,0.10664450004696846,157,t,t
2024-02-17 15:31:13.076217,3,0.13132049998966977,158,r,r
2024-02-17 15:31:13.196072,3,0.10035980003885925,159,i,i
2024-02-17 15:31:13.280681,3,0.06899569998495281,160,a,a
2024-02-17 15:31:13.402508,3,0.09110050002345815,161,space,space
2024-02-17 15:31:13.886536,3,0.45866250002291054,162,f,f
2024-02-17 15:31:14.114941,3,0.20131299999775365,163,r,r
2024-02-17 15:31:14.224991,3,0.07917070004623383,164,a,a
2024-02-17 15:31:14.338888,3,0.09300629998324439,165,n,n
2024-02-17 15:31:14.446099,3,0.08281669998541474,166,c,c
2024-02-17 15:31:14.482246,3,0.0033916999818757176,167,e,e
2024-02-17 15:31:14.563930,3,0.048409300041384995,168,space,space
2024-02-17 15:31:14.934816,3,0.3363791000447236,169,i,i
2024-02-17 15:31:15.326368,3,0.36417190002975985,170,r,r
2024-02-17 15:31:15.436068,3,0.0905489000142552,171,a,a
2024-02-17 15:31:15.660374,3,0.19767180003691465,172,q,t
2024-02-17 15:31:15.899786,3,0.2208414999768138,172,q,q
2024-02-17 15:31:16.370635,3,0.44077759998617694,173,space,space
2024-02-17 15:31:16.610864,3,0.21351539995521307,174,n,n
2024-02-17 15:31:16.689032,3,0.0593469999730587,175,i,o
2024-02-17 15:31:16.790453,3,0.07540080003673211,175,i,g
2024-02-17 15:31:16.921645,3,0.10964689997490495,175,i,e
2024-02-17 15:31:16.975512,3,0.030025499989278615,175,i,r
2024-02-17 15:31:17.313956,3,0.29900240001734346,175,i,i
2024-02-17 15:31:17.497678,3,0.16816860000835732,176,g,g
2024-02-17 15:31:17.690371,3,0.17744659999152645,177,e,e
2024-02-17 15:31:17.761370,3,0.048509899992495775,178,r,r
2024-02-17 15:31:18.272374,3,0.47281659999862313,179,i,i
2024-02-17 15:31:18.400523,3,0.1039701999980025,180,a,a
2024-02-17 15:31:18.563866,3,0.13330760004464537,181,space,space
2024-02-17 15:31:18.955948,3,0.3760296999826096,182,i,a
2024-02-17 15:31:19.194133,3,0.21417949994793162,182,i,i
2024-02-17 15:31:19.273329,3,0.05948639998678118,183,c,c
2024-02-17 15:31:19.358339,3,0.042851700040046126,184,e,e
2024-02-17 15:31:19.465375,3,0.06852760002948344,185,l,l
2024-02-17 15:31:19.619860,3,0.12230300001101568,186,a,a
2024-02-17 15:31:19.749674,3,0.1031760000041686,187,n,n
2024-02-17 15:31:19.841443,3,0.0608924999833107,188,d,d
2024-02-17 15:31:19.950391,3,0.06482939998386428,189,space,space
2024-02-17 15:31:20.228759,3,0.24955479998607188,190,n,n
2024-02-17 15:31:20.339372,3,0.09180610004113987,191,a,a
2024-02-17 15:31:20.458018,3,0.09389019996160641,192,m,m
2024-02-17 15:31:20.838017,3,0.35901879996526986,193,i,i
2024-02-17 15:31:20.954019,3,0.09029540000483394,194,b,b
2024-02-17 15:31:21.053045,3,0.07262560003437102,195,i,i
2024-02-17 15:31:21.297017,3,0.19669180002529174,196,a,a
2024-02-17 15:31:21.436655,3,0.10656099999323487,197,space,space
2024-02-17 15:31:21.953045,3,0.48970510001527146,198,b,b
2024-02-17 15:31:22.522660,3,0.5426929999957792,199,h,h
2024-02-17 15:31:22.692111,3,0.14497229998232797,200,u,i
2024-02-17 15:31:22.820997,3,0.10741509997751564,200,u,r
2024-02-17 15:31:23.025877,3,0.17840659996727481,200,u,u
2024-02-17 15:31:23.138699,3,0.09177449997514486,201,t,t
2024-02-17 15:31:23.224703,3,0.059654399985447526,202,a,a
2024-02-17 15:31:23.289858,3,0.021107700013089925,203,n,n
2024-02-17 15:31:23.847669,3,0.5146645000204444,204,space,space
2024-02-17 15:31:24.190994,3,0.3270967999706045,205,p,p
2024-02-17 15:31:24.303634,3,0.08926269999938086,206,a,a
2024-02-17 15:31:24.460342,3,0.12953710003057495,207,k,k
2024-02-17 15:31:24.645910,3,0.16559350001625717,208,i,a
2024-02-17 15:31:25.039088,3,0.3746240999898873,208,i,i
2024-02-17 15:31:25.127257,3,0.061586299969349056,209,s,s
2024-02-17 15:31:25.285204,3,0.11792809999315068,210,t,t
2024-02-17 15:31:25.378913,3,0.06464360002428293,211,a,a
2024-02-17 15:31:25.841235,3,0.4436958000296727,212,n,n
2024-02-17 15:31:26.020230,3,0.1561373000149615,213,space,space
2024-02-17 15:31:26.306163,3,0.2584896000334993,214,s,s
2024-02-17 15:31:26.492794,3,0.16220220003742725,215,w,w
2024-02-17 15:31:26.594145,3,0.08006740000564605,216,a,a
2024-02-17 15:31:26.772744,3,0.15813860000343993,217,z,l
2024-02-17 15:31:26.956810,3,0.1593484000186436,217,z,s
2024-02-17 15:31:27.486408,3,0.5055128000094555,217,z,z
2024-02-17 15:31:27.657437,3,0.1430936999968253,218,i,i
2024-02-17 15:31:27.891010,3,0.21035570005187765,219,l,l
2024-02-17 15:31:28.158235,3,0.24411520001012832,220,a,a
2024-02-17 15:31:28.276438,3,0.09528649999992922,221,n,n
2024-02-17 15:31:28.409336,3,0.11145910003688186,222,d,d
2024-02-17 15:31:29.547778,3,1.1170766000286676,223,space,lwindows
2024-02-17 15:31:29.612498,3,0.047342600009869784,223,space,lshift
2024-02-17 15:31:29.772215,3,0.12069940002402291,223,space,s
2024-02-17 15:31:33.790480,3,3.9922470999881625,223,space,p
2024-02-17 15:31:34.091488,3,0.27509339997777715,223,space,space
2024-02-17 15:31:34.537596,3,0.42263059999095276,224,p,p
2024-02-17 15:31:34.869942,3,0.3047499000094831,225,e,e
2024-02-17 15:31:34.959307,3,0.06058250000933185,226,r,r
2024-02-17 15:31:35.314484,3,0.3136497000232339,227,u,i
2024-02-17 15:31:35.736503,3,0.40447340003447607,227,u,i
2024-02-17 15:31:36.105148,3,0.33903529995586723,227,u,u
2024-02-17 15:31:37.085523,4,0.9530371999717318,0,k,k
2024-02-17 15:31:37.288182,4,0.18903569999383762,1,o,o
2024-02-17 15:31:37.374032,4,0.05694659997243434,2,s,s
2024-02-17 15:31:37.479123,4,0.07708049996290356,3,o,o
2024-02-17 15:31:37.588899,4,0.08967539999866858,4,v,v
2024-02-17 15:31:37.677342,4,0.061571700032800436,5,o,o
2024-02-17 15:31:37.857335,4,0.15625990001717582,6,space,space
2024-02-17 15:31:38.207858,4,0.32565720001002774,7,a,a
2024-02-17 15:31:38.294813,4,0.0618300000205636,8,n,n
2024-02-17 15:31:38.416563,4,0.09872760000871494,9,g,g
2024-02-17 15:31:38.509585,4,0.07724200002849102,10,o,o
2024-02-17 15:31:38.677074,4,0.14196239999728277,11,l,l
2024-02-17 15:31:38.778920,4,0.07969450001837686,12,a,a
2024-02-17 15:31:38.875174,4,0.0749173000222072,13,space,space
2024-02-17 15:31:39.034518,4,0.13296610000543296,14,m,m
2024-02-17 15:31:39.114014,4,0.06524570001056418,15,i,i
2024-02-17 15:31:39.171568,4,0.019064200052525848,16,c,c
2024-02-17 15:31:39.335696,4,0.11683909996645525,17,r,r
2024-02-17 15:31:39.416555,4,0.06718640000326559,18,o,o
2024-02-17 15:31:39.547724,4,0.09457339998334646,19,n,s
2024-02-17 15:31:39.646576,4,0.07999409997137263,19,n,n
2024-02-17 15:31:39.755314,4,0.07040389999747276,20,e,e
2024-02-17 15:31:39.926026,4,0.14303640002617612,21,s,s
2024-02-17 15:31:39.986628,4,0.03643849998479709,22,i,i
2024-02-17 15:31:40.106055,4,0.08604810002725571,23,a,a
2024-02-17 15:31:40.261734,4,0.12855839997064322,24,space,space
2024-02-17 15:31:40.670175,4,0.38728080003056675,25,g,f
2024-02-17 15:31:40.998610,4,0.3158705999958329,25,g,g
2024-02-17 15:31:41.097400,4,0.08041270001558587,26,h,h
2024-02-17 15:31:41.213651,4,0.09481949999462813,27,a,a
2024-02-17 15:31:41.472844,4,0.23992500000167638,28,n,n
2024-02-17 15:31:41.588837,4,0.08891570003470406,29,a,a
2024-02-17 15:31:41.704912,4,0.08818999998038635,30,space,space
2024-02-17 15:31:41.969831,4,0.2364233999978751,31,f,f
2024-02-17 15:31:42.118502,4,0.135060100001283,32,r,r
2024-02-17 15:31:42.197504,4,0.06402109999908134,33,a,a
2024-02-17 15:31:42.249572,4,0.013756799977272749,34,n,n
2024-02-17 15:31:42.369630,4,0.08356830000411719,35,c,c
2024-02-17 15:31:42.419647,4,0.036580100015271455,36,e,e
2024-02-17 15:31:42.504717,4,0.0509891000110656,37,space,space
2024-02-17 15:31:42.683655,4,0.1508238999522291,38,c,c
2024-02-17 15:31:42.803986,4,0.10448829998495057,39,r,o
2024-02-17 15:31:42.883445,4,0.04902040003798902,39,r,r
2024-02-17 15:31:42.974248,4,0.054029099992476404,40,o,a
2024-02-17 15:31:43.531226,4,0.5291574000148103,40,o,a
2024-02-17 15:31:43.824280,4,0.2743499000207521,40,o,o
2024-02-17 15:31:43.985621,4,0.13526499998988584,41,a,a
2024-02-17 15:31:44.117019,4,0.11657489999197423,42,t,t
2024-02-17 15:31:44.224247,4,0.08923720003804192,43,i,i
2024-02-17 15:31:44.452842,4,0.2028721999959089,44,a,a
2024-02-17 15:31:44.590230,4,0.12338469998212531,45,space,space
2024-02-17 15:31:44.829492,4,0.21212300000479445,46,k,k
2024-02-17 15:31:44.959517,4,0.10869019996607676,47,i,i
2024-02-17 15:31:45.024661,4,0.04092379997018725,48,r,r
2024-02-17 15:31:45.137311,4,0.08348590001696721,49,i,i
2024-02-17 15:31:45.417190,4,0.2503160000196658,50,b,b
2024-02-17 15:31:45.638280,4,0.2043042000150308,51,a,a
2024-02-17 15:31:45.760977,4,0.0933894999907352,52,t,t
2024-02-17 15:31:45.891142,4,0.10715649998746812,53,i,i
2024-02-17 15:31:46.051920,4,0.13458149996586144,54,space,space
2024-02-17 15:31:46.361896,4,0.29424200003268197,55,t,t
2024-02-17 15:31:46.456403,4,0.07171950000338256,56,u,u
2024-02-17 15:31:46.535009,4,0.048535200010519475,57,n,n
2024-02-17 15:31:46.628906,4,0.058944799995515496,58,i,i
2024-02-17 15:31:46.798716,4,0.14549960003932938,59,s,s
2024-02-17 15:31:47.017371,4,0.20060530002228916,60,i,i
2024-02-17 15:31:47.152596,4,0.11831630003871396,61,a,a
2024-02-17 15:31:47.335682,4,0.16816510003991425,62,space,space
2024-02-17 15:31:47.720420,4,0.37003799999365583,63,l,l
2024-02-17 15:31:47.855351,4,0.10457429999951273,64,i,i
2024-02-17 15:31:48.089724,4,0.20589669997571036,65,b,b
2024-02-17 15:31:48.456065,4,0.3381801000214182,66,y,y
2024-02-17 15:31:48.933938,4,0.4497692000004463,67,a,a
2024-02-17 15:31:49.052942,4,0.10257340001408011,68,space,space
2024-02-17 15:31:49.441538,4,0.3734470999916084,69,t,t
2024-02-17 15:31:49.517788,4,0.049314400006551296,70,o,o
2024-02-17 15:31:49.613324,4,0.05959800002165139,71,n,n
2024-02-17 15:31:49.685400,4,0.04876259999582544,72,g,g
2024-02-17 15:31:49.816702,4,0.09682499995687976,73,a,a
2024-02-17 15:31:49.895236,4,0.060630999971181154,74,space,space
2024-02-17 15:31:50.378868,4,0.4248513999627903,75,p,p
2024-02-17 15:31:50.481469,4,0.07751630002167076,76,a,a
2024-02-17 15:31:50.646926,4,0.14564449997851625,77,k,k
2024-02-17 15:31:50.767002,4,0.09843059995910153,78,i,i
2024-02-17 15:31:50.823921,4,0.03897970000980422,79,s,s
2024-02-17 15:31:50.975694,4,0.12139769998611882,80,t,t
2024-02-17 15:31:51.023794,4,0.022288500040303916,81,a,a
2024-02-17 15:31:51.124218,4,0.07086490001529455,82,n,n
2024-02-17 15:31:51.302734,4,0.15091510000638664,83,space,space
2024-02-17 15:31:51.632863,4,0.3144758999696933,84,j,j
2024-02-17 15:31:51.768989,4,0.11703480000142008,85,o,o
2024-02-17 15:31:51.854008,4,0.06928789999801666,86,r,r
2024-02-17 15:31:52.035513,4,0.1482217000448145,87,d,d
2024-02-17 15:31:52.242531,4,0.19025169999804348,88,a,n
2024-02-17 15:31:52.329813,4,0.06168920005438849,88,a,a
2024-02-17 15:31:52.556797,4,0.20304130000295117,89,n,n
2024-02-17 15:31:52.646601,4,0.06119179999222979,90,space,a
2024-02-17 15:31:52.789609,4,0.11894790001679212,90,space,space
2024-02-17 15:31:53.146941,4,0.3287168999668211,91,l,l
2024-02-17 15:31:53.362098,4,0.1935584000311792,92,e,e
2024-02-17 15:31:53.529695,4,0.14456719998270273,93,s,s
2024-02-17 15:31:53.678130,4,0.12635759997647256,94,o,o
2024-02-17 15:31:53.872192,4,0.17074830003548414,95,t,t
2024-02-17 15:31:53.967461,4,0.06534949998604134,96,h,h
2024-02-17 15:31:54.066932,4,0.06454169994685799,97,o,o
2024-02-17 15:31:54.265541,4,0.1631057999911718,98,space,space
2024-02-17 15:31:54.505426,4,0.22012979997089133,99,k,k
2024-02-17 15:31:54.632307,4,0.09792939998442307,100,e,e
2024-02-17 15:31:54.733327,4,0.08097260002978146,101,n,n
2024-02-17 15:31:55.228805,4,0.47640230000251904,102,y,t
2024-02-17 15:31:55.841302,4,0.5895127999829128,102,y,y
2024-02-17 15:31:56.057228,4,0.18812140001682565,103,a,a
2024-02-17 15:31:56.223876,4,0.13645360001828521,104,space,space
2024-02-17 15:31:56.589796,4,0.3375870999880135,105,m,m
2024-02-17 15:31:56.686227,4,0.06652319995919243,106,a,a
2024-02-17 15:31:56.804467,4,0.08029839996015653,107,l,l
2024-02-17 15:31:56.855167,4,0.03527250001206994,108,a,a
2024-02-17 15:31:57.172501,4,0.28348730003926903,109,w,w
2024-02-17 15:31:57.292477,4,0.1070414999849163,110,i,i
2024-02-17 15:31:57.434545,4,0.11596079997252673,111,space,space
2024-02-17 15:31:57.880251,4,0.4283820000127889,112,m,l
2024-02-17 15:31:57.981642,4,0.07929700001841411,112,m,a
2024-02-17 15:31:58.156068,4,0.15338679996784776,112,m,m
2024-02-17 15:31:58.245673,4,0.060033800022210926,113,a,a
2024-02-17 15:31:58.350129,4,0.0780938999960199,114,l,l
2024-02-17 15:31:58.417504,4,0.04762420000042766,115,a,a
2024-02-17 15:31:58.909805,4,0.45514999999431893,116,y,y
2024-02-17 15:31:59.070063,4,0.1341408000444062,117,s,s
2024-02-17 15:31:59.164255,4,0.07771949999732897,118,i,i
2024-02-17 15:31:59.263115,4,0.07473469997057691,119,a,a
2024-02-17 15:31:59.385473,4,0.0997196999960579,120,space,space
2024-02-17 15:31:59.734078,4,0.33156729995971546,121,b,b
2024-02-17 15:31:59.833287,4,0.07998270000098273,122,r,r
2024-02-17 15:31:59.901512,4,0.03146310005104169,123,a,a
2024-02-17 15:32:00.281100,4,0.3422427999903448,124,z,z
2024-02-17 15:32:00.401121,4,0.09820860001491383,125,i,i
2024-02-17 15:32:00.609117,4,0.18976249999832362,126,l,l
2024-02-17 15:32:00.706545,4,0.06987350003328174,127,space,space
2024-02-17 15:32:01.078008,4,0.3417538999929093,128,r,r
2024-02-17 15:32:01.150913,4,0.04779669997515157,129,w,a
2024-02-17 15:32:01.413017,4,0.22500139998737723,129,w,w
2024-02-17 15:32:01.558170,4,0.12145239999517798,130,a,a
2024-02-17 15:32:01.661204,4,0.07353059999877587,131,n,n
2024-02-17 15:32:01.763764,4,0.07717540004523471,132,d,a
2024-02-17 15:32:01.866526,4,0.08070339995902032,132,d,space
2024-02-17 15:32:02.205159,4,0.3186206000391394,132,d,d
2024-02-17 15:32:02.261813,4,0.02543330000480637,133,a,a
2024-02-17 15:32:02.375940,4,0.0860862000263296,134,space,space
2024-02-17 15:32:02.817512,4,0.4141887999721803,135,i,l
2024-02-17 15:32:03.044534,4,0.20714110002154484,135,i,i
2024-02-17 15:32:03.152127,4,0.08169099997030571,136,t,t
2024-02-17 15:32:03.220359,4,0.049498400010634214,137,a,a
2024-02-17 15:32:03.312356,4,0.05674530001124367,138,l,l
2024-02-17 15:32:03.551252,4,0.2144004000001587,139,y,y
2024-02-17 15:32:03.666066,4,0.09659949998604134,140,space,space
2024-02-17 15:32:04.010563,4,0.3241400999831967,141,i,i
2024-02-17 15:32:04.078400,4,0.04134820000035688,142,n,n
2024-02-17 15:32:04.152392,4,0.046022300026379526,143,d,d
2024-02-17 15:32:04.232907,4,0.0432141000055708,144,o,o
2024-02-17 15:32:04.451402,4,0.18109359999652952,145,n,n
2024-02-17 15:32:04.581600,4,0.11223490000702441,146,e,e
2024-02-17 15:32:04.763610,4,0.16008080000756308,147,s,s
2024-02-17 15:32:04.864751,4,0.07848889997694641,148,i,i
2024-02-17 15:32:05.414661,4,0.527250700048171,149,a,a
2024-02-17 15:32:05.536471,4,0.09958659997209907,150,space,space
2024-02-17 15:32:06.243762,4,0.6902717999764718,151,s,s
2024-02-17 15:32:06.365601,4,0.09521100000711158,152,o,o
2024-02-17 15:32:06.439013,4,0.052009299979545176,153,m,m
2024-02-17 15:32:06.549441,4,0.07701499998802319,154,a,a
2024-02-17 15:32:06.679496,4,0.10619809996569529,155,l,l
2024-02-17 15:32:06.821799,4,0.11813509999774396,156,i,i
2024-02-17 15:32:06.957786,4,0.12157560000196099,157,a,a
2024-02-17 15:32:07.069552,4,0.08237260003807023,158,space,space
2024-02-17 15:32:07.439756,4,0.35354420001385733,159,b,e
2024-02-17 15:32:07.620785,4,0.15098209999268875,159,b,b
2024-02-17 15:32:07.783225,4,0.1453965000109747,160,e,e
2024-02-17 15:32:07.834713,4,0.029745900013949722,161,n,n
2024-02-17 15:32:07.901994,4,0.028825799992773682,162,i,o
2024-02-17 15:32:08.053783,4,0.11511860002065077,162,i,n
2024-02-17 15:32:08.275167,4,0.20486820000223815,162,i,n
2024-02-17 15:32:08.352727,4,0.04913539998233318,162,i,i
2024-02-17 15:32:08.451303,4,0.06172699999297038,163,n,n
2024-02-17 15:32:08.643577,4,0.17311099998187274,164,space,space
2024-02-17 15:32:08.899486,4,0.22855709999566898,165,s,s
2024-02-17 15:32:09.144177,4,0.2236064999597147,166,y,y
2024-02-17 15:32:09.564284,4,0.39296930003911257,167,r,r
2024-02-17 15:32:09.682905,4,0.09573689999524504,168,i,i
2024-02-17 15:32:09.733055,4,0.028717100038193166,169,a,a
2024-02-17 15:32:09.916379,4,0.1432329000090249,170,space,space
2024-02-17 15:32:10.388815,4,0.4519573000143282,171,m,m
2024-02-17 15:32:10.499216,4,0.09447369998088107,172,a,a
2024-02-17 15:32:10.673232,4,0.15180670004338026,173,c,c
2024-02-17 15:32:11.107109,4,0.41900659998646006,174,e,e
2024-02-17 15:32:11.386655,4,0.2655408999999054,175,d,d
2024-02-17 15:32:11.452656,4,0.04803980002179742,176,o,o
2024-02-17 15:32:11.548035,4,0.056855599978007376,177,n,n
2024-02-17 15:32:11.731105,4,0.15790069999638945,178,i,i
2024-02-17 15:32:11.832024,4,0.07835680001880974,179,a,a
2024-02-17 15:32:11.945803,4,0.0914661000133492,180,space,space
2024-02-17 15:32:12.359620,4,0.38878689997363836,181,n,n
2024-02-17 15:32:12.417660,4,0.02910899999551475,182,e,e
2024-02-17 15:32:12.544712,4,0.08668110001599416,183,p,p
2024-02-17 15:32:12.636308,4,0.06483669998124242,184,a,a
2024-02-17 15:32:12.793994,4,0.12261990003753453,185,l,l
2024-02-17 15:32:12.948028,4,0.12778049998451024,186,space,space
2024-02-17 15:32:13.262996,4,0.29227209999226034,187,u,u
2024-02-17 15:32:13.367127,4,0.07852889999048784,188,a,a
2024-02-17 15:32:13.711708,4,0.3228661000030115,189,e,e
2024-02-17 15:32:13.988592,4,0.25020500004757196,190,space,space
2024-02-17 15:32:14.214272,4,0.2093433000263758,191,f,f
2024-02-17 15:32:14.297935,4,0.058879700023680925,192,i,i
2024-02-17 15:32:14.560380,4,0.23645139997825027,193,j,j
2024-02-17 15:32:14.604420,4,0.016095900034997612,194,i,i
2024-02-17 15:32:14.943511,4,0.3198320000083186,195,space,space
2024-02-17 15:32:15.366980,4,0.39604700001655146,196,a,a
2024-02-17 15:32:15.502219,4,0.11356690002139658,197,u,u
2024-02-17 15:32:15.580578,4,0.058101999980863184,198,s,s
2024-02-17 15:32:15.730131,4,0.12263220001477748,199,t,t
2024-02-17 15:32:15.859372,4,0.10459260002244264,200,r,r
2024-02-17 15:32:15.914061,4,0.025447299994993955,201,a,a
2024-02-17 15:32:16.040602,4,0.09930480003822595,202,l,l
2024-02-17 15:32:16.166872,4,0.09533600002760068,203,i,i
2024-02-17 15:32:16.252082,4,0.06247750000329688,204,a,a
2024-02-17 15:32:16.370124,4,0.07885749998968095,205,space,space
2024-02-17 15:32:16.750120,4,0.3618354999925941,206,m,m
2024-02-17 15:32:16.820935,4,0.04848129994934425,207,a,a
2024-02-17 15:32:16.920461,4,0.06266530003631487,208,l,l
2024-02-17 15:32:17.049718,4,0.09336589998565614,209,i,i
2024-02-17 15:32:17.166780,4,0.0950771999778226,210,space,space
2024-02-17 15:32:17.464839,4,0.2590479999780655,211,k,k
2024-02-17 15:32:17.627368,4,0.13823610002873465,212,u,u
2024-02-17 15:32:17.743596,4,0.08768649998819456,213,w,w
2024-02-17 15:32:17.911076,4,0.13869749999139458,214,a,a
2024-02-17 15:32:18.019020,4,0.08034299995051697,215,i,i
2024-02-17 15:32:18.632098,4,0.5929116000188515,216,t,t
2024-02-17 15:32:19.679270,5,1.0233775000087917,0,p,a
2024-02-17 15:32:20.023017,5,0.3166563999839127,0,p,p
2024-02-17 15:32:20.405774,5,0.3652878000284545,1,a,a
2024-02-17 15:32:20.552298,5,0.12955210002837703,2,n,n
2024-02-17 15:32:20.647397,5,0.07415820000460371,3,a,a
2024-02-17 15:32:20.744611,5,0.06947659997968003,4,m,m
2024-02-17 15:32:20.809847,5,0.03510560002177954,5,a,a
2024-02-17 15:32:20.942912,5,0.1018540000077337,6,space,m
2024-02-17 15:32:21.272829,5,0.317020499962382,6,space,space
2024-02-17 15:32:21.470519,5,0.18121330003486946,7,z,z
2024-02-17 15:32:21.633261,5,0.14409570000134408,8,i,i
2024-02-17 15:32:21.733779,5,0.0779632999910973,9,m,m
2024-02-17 15:32:21.995863,5,0.24076830002013594,10,b,b
2024-02-17 15:32:22.173924,5,0.150763499957975,11,a,a
2024-02-17 15:32:22.296356,5,0.10706650000065565,12,b,b
2024-02-17 15:32:22.467693,5,0.1450753000099212,13,w,z
2024-02-17 15:32:22.774995,5,0.28540950000751764,13,w,w
2024-02-17 15:32:22.971359,5,0.18154219997813925,14,e,e
2024-02-17 15:32:23.109432,5,0.11973949999082834,15,space,r
2024-02-17 15:32:23.164006,5,0.02471919998060912,15,space,space
2024-02-17 15:32:23.270225,5,0.07830360002117231,16,a,a
2024-02-17 15:32:23.353626,5,0.06411619996652007,17,n,n
2024-02-17 15:32:23.434950,5,0.04353649995755404,18,d,d
2024-02-17 15:32:23.542975,5,0.08399909996660426,19,o,o
2024-02-17 15:32:23.659379,5,0.08043010003166273,20,r,r
2024-02-17 15:32:23.801866,5,0.12943329999689013,21,r,r
2024-02-17 15:32:23.940692,5,0.11766089999582618,22,a,a
2024-02-17 15:32:24.085033,5,0.12809769995510578,23,space,space
2024-02-17 15:32:24.501098,5,0.3946970999822952,24,j,j
2024-02-17 15:32:24.585012,5,0.061810199986211956,25,a,a
2024-02-17 15:32:24.732583,5,0.10961769998539239,26,m,m
2024-02-17 15:32:24.912946,5,0.15635850001126528,27,a,a
2024-02-17 15:32:25.002094,5,0.0616244999691844,28,i,i
2024-02-17 15:32:25.087186,5,0.06169120001140982,29,c,n
2024-02-17 15:32:25.267398,5,0.14026210003066808,29,c,c
2024-02-17 15:32:25.430527,5,0.1409468000056222,30,a,a
2024-02-17 15:32:25.544842,5,0.0881725000217557,31,space,space
2024-02-17 15:32:25.877125,5,0.3027796000242233,32,i,i
2024-02-17 15:32:26.104741,5,0.21434920001775026,33,r,r
2024-02-17 15:32:26.282414,5,0.15927590004866943,34,a,a
2024-02-17 15:32:26.410608,5,0.10316499997861683,35,q,w
2024-02-17 15:32:26.650409,5,0.22739210003055632,35,q,space
2024-02-17 15:32:27.386085,5,0.7132287000422366,35,q,q
2024-02-17 15:32:27.569106,5,0.16267549997428432,36,space,space
2024-02-17 15:32:27.958782,5,0.3680987999541685,37,v,v
2024-02-17 15:32:28.075137,5,0.10162739997031167,38,e,e
2024-02-17 15:32:28.135279,5,0.04480119998333976,39,n,n
2024-02-17 15:32:28.247046,5,0.0693637999938801,40,e,e
2024-02-17 15:32:28.509182,5,0.2343131999950856,41,z,z
2024-02-17 15:32:28.716378,5,0.19275379995815456,42,u,u
2024-02-17 15:32:28.827415,5,0.08745310001540929,43,e,a
2024-02-17 15:32:28.945189,5,0.1051558000035584,43,e,l
2024-02-17 15:32:29.050376,5,0.07565830001840368,43,e,e
2024-02-17 15:32:29.192182,5,0.11763320001773536,44,l,l
2024-02-17 15:32:29.273717,5,0.0666456000180915,45,a,e
2024-02-17 15:32:29.427261,5,0.11770940001588315,45,a,l
2024-02-17 15:32:29.573380,5,0.11649869999382645,45,a,space
2024-02-17 15:32:30.176959,5,0.5872247000224888,45,a,a
2024-02-17 15:32:30.294952,5,0.1038387999869883,46,space,space
2024-02-17 15:32:30.472815,5,0.14920470002107322,47,c,c
2024-02-17 15:32:30.511674,5,0.021168200008105487,48,o,o
2024-02-17 15:32:30.585706,5,0.040418800024781376,49,n,n
2024-02-17 15:32:30.748791,5,0.12136049999389797,50,g,g
2024-02-17 15:32:30.907052,5,0.1324834999977611,51,o,o
2024-02-17 15:32:31.128072,5,0.20401180000044405,52,space,space
2024-02-17 15:32:31.291770,5,0.13365849998081103,53,a,a
2024-02-17 15:32:31.602453,5,0.2944543999619782,54,r,m
2024-02-17 15:32:31.716426,5,0.09180010005366057,54,r,r
2024-02-17 15:32:31.858095,5,0.11709310003789142,55,m,m
2024-02-17 15:32:32.031697,5,0.15788499999325722,56,e,e
2024-02-17 15:32:32.335901,5,0.2786257000407204,57,n,n
2024-02-17 15:32:32.449616,5,0.0918394000036642,58,i,i
2024-02-17 15:32:32.560702,5,0.08666940004331991,59,a,a
2024-02-17 15:32:32.667067,5,0.07524820003891364,60,space,space
2024-02-17 15:32:33.199576,5,0.5084966000285931,61,v,v
2024-02-17 15:32:33.300156,5,0.07487910002237186,62,i,i
2024-02-17 15:32:33.388157,5,0.06350679998286068,63,e,e
2024-02-17 15:32:33.492276,5,0.06672750000143424,64,t,r
2024-02-17 15:32:33.835790,5,0.3051642999635078,64,t,t
2024-02-17 15:32:34.031312,5,0.17349279997870326,65,n,n
2024-02-17 15:32:34.134640,5,0.07643469999311492,66,a,a
2024-02-17 15:32:34.219138,5,0.05903489998308942,67,m,m
2024-02-17 15:32:34.295095,5,0.051368500047829,68,space,e
2024-02-17 15:32:34.419200,5,0.09229479997884482,68,space,space
2024-02-17 15:32:34.835269,5,0.39442999998573214,69,g,g
2024-02-17 15:32:34.914474,5,0.0554617999587208,70,u,u
2024-02-17 15:32:35.108436,5,0.1638941999990493,71,i,i
2024-02-17 15:32:35.226927,5,0.10191989998565987,72,n,n
2024-02-17 15:32:35.348907,5,0.09024270001100376,73,e,e
2024-02-17 15:32:35.562572,5,0.18721270002424717,74,a,a
2024-02-17 15:32:35.774926,5,0.1836512999725528,75,space,space
2024-02-17 15:32:36.261956,5,0.4708243999630213,76,h,h
2024-02-17 15:32:36.316265,5,0.024675299995578825,77,a,a
2024-02-17 15:32:36.428850,5,0.0849455000134185,78,i,i
2024-02-17 15:32:36.564766,5,0.10584899998502806,79,t,t
2024-02-17 15:32:36.681682,5,0.09037990000797436,80,i,i
2024-02-17 15:32:37.110849,5,0.40193779999390244,81,space,space
2024-02-17 15:32:37.341299,5,0.21591680002165958,82,m,m
2024-02-17 15:32:37.433317,5,0.07364599994616583,83,o,o
2024-02-17 15:32:37.554442,5,0.09362759999930859,84,z,z
2024-02-17 15:32:37.708538,5,0.13363689999096096,85,a,a
2024-02-17 15:32:37.802940,5,0.0782795999548398,86,m,m
2024-02-17 15:32:38.056239,5,0.23124409996671602,87,b,b
2024-02-17 15:32:38.174086,5,0.09882259997539222,88,i,i
2024-02-17 15:32:38.387223,5,0.19456949998857453,89,q,e
2024-02-17 15:32:38.614432,5,0.20562039996730164,89,q,q
2024-02-17 15:32:38.704391,5,0.06250149995321408,90,u,u
2024-02-17 15:32:38.889152,5,0.16201739996904507,91,e,e
2024-02-17 15:32:39.098040,5,0.18928300001425669,92,space,space
2024-02-17 15:32:39.473126,5,0.34691920003388077,93,f,f
2024-02-17 15:32:39.567551,5,0.07474039995577186,94,i,j
2024-02-17 15:32:39.658594,5,0.06525450001936406,94,i,i
2024-02-17 15:32:39.830371,5,0.13363930000923574,95,j,i
2024-02-17 15:32:40.029241,5,0.17138760001398623,95,j,j
2024-02-17 15:32:40.179460,5,0.11999109998578206,96,i,i
2024-02-17 15:32:40.306580,5,0.09788850002223626,97,space,j
2024-02-17 15:32:40.517662,5,0.1921771999914199,97,space,space
2024-02-17 15:32:40.796268,5,0.25367000000551343,98,a,a
2024-02-17 15:32:40.986320,5,0.17739670001901686,99,l,l
2024-02-17 15:32:41.090031,5,0.08043019997421652,100,g,e
2024-02-17 15:32:41.279834,5,0.1467560000019148,100,g,g
2024-02-17 15:32:41.391857,5,0.08260419999714941,101,e,e
2024-02-17 15:32:41.461425,5,0.05226039997069165,102,r,r
2024-02-17 15:32:41.551353,5,0.056420299981255084,103,i,i
2024-02-17 15:32:41.665631,5,0.0900089000351727,104,a,a
2024-02-17 15:32:41.809328,5,0.11697740003000945,105,space,space
2024-02-17 15:32:42.135901,5,0.31047960004070774,106,p,p
2024-02-17 15:32:42.344340,5,0.18467649997910485,107,a,a
2024-02-17 15:32:42.740716,5,0.3811039000283927,108,l,a
2024-02-17 15:32:42.844866,5,0.08475679997354746,108,l,l
2024-02-17 15:32:42.981714,5,0.10564379999414086,109,a,a
2024-02-17 15:32:43.070587,5,0.06051430001389235,110,u,u
2024-02-17 15:32:43.188151,5,0.09524160000728443,111,space,a
2024-02-17 15:32:43.322200,5,0.11324340000282973,111,space,space
2024-02-17 15:32:43.689343,5,0.34741570003097877,112,a,a
2024-02-17 15:32:43.786514,5,0.07719579996773973,113,n,n
2024-02-17 15:32:43.886597,5,0.07504600001266226,114,g,g
2024-02-17 15:32:44.067781,5,0.15845379995880648,115,o,o
2024-02-17 15:32:44.451556,5,0.35940319998189807,116,l,l
2024-02-17 15:32:44.556245,5,0.08010189997730777,117,a,a
2024-02-17 15:32:44.655809,5,0.07932309998432174,118,space,space
2024-02-17 15:32:44.924977,5,0.24961420003091916,119,g,h
2024-02-17 15:32:44.990995,5,0.04762709996430203,119,g,g
2024-02-17 15:32:45.137990,5,0.10902110004099086,120,h,h
2024-02-17 15:32:45.227016,5,0.06673940003383905,121,a,a
2024-02-17 15:32:45.366993,5,0.1070416999864392,122,n,b
2024-02-17 15:32:45.647433,5,0.2547029000124894,122,n,n
2024-02-17 15:32:45.767046,5,0.09048289997735992,123,a,e
2024-02-17 15:32:45.899022,5,0.10515800002031028,123,a,space
2024-02-17 15:32:46.463994,5,0.5378242000006139,123,a,a
2024-02-17 15:32:46.582068,5,0.08847410004818812,124,space,space
2024-02-17 15:32:46.765376,5,0.1551993999746628,125,c,c
2024-02-17 15:32:47.050989,5,0.2570366999716498,126,u,u
2024-02-17 15:32:47.176967,5,0.1004833999904804,127,b,b
2024-02-17 15:32:47.267211,5,0.0738629000261426,128,a,a
2024-02-17 15:32:47.408251,5,0.11216490005608648,129,space,space
2024-02-17 15:32:47.988259,5,0.5616938000312075,130,s,s
2024-02-17 15:32:48.100552,5,0.08971259999088943,131,u,i
2024-02-17 15:32:48.181871,5,0.05332829995313659,131,u,d
2024-02-17 15:32:48.245100,5,0.031245999969542027,131,u,a
2024-02-17 15:32:48.342253,5,0.0471160999732092,131,u,n
2024-02-17 15:32:48.748570,5,0.3883520999806933,131,u,u
2024-02-17 15:32:49.219464,5,0.44241519999923185,132,d,d
2024-02-17 15:32:49.305580,5,0.06191200000466779,133,a,a
2024-02-17 15:32:49.586263,5,0.2415251000202261,134,n,n
2024-02-17 15:32:49.880032,5,0.2695652999682352,135,space,space
2024-02-17 15:32:50.182171,5,0.28820760000962764,136,n,n
2024-02-17 15:32:50.274019,5,0.06305669998982921,137,e,a
2024-02-17 15:32:50.454963,5,0.14216069999383762,137,e,e
2024-02-17 15:32:50.653063,5,0.17594539996935055,138,p,a
2024-02-17 15:32:51.062603,5,0.10201450000749901,138,p,a
2024-02-17 15:32:51.939490,5,0.8618210999993607,138,p,p
2024-02-17 15:32:52.037296,5,0.07641430001240224,139,a,a
2024-02-17 15:32:52.141037,5,0.07941940001910552,140,l,l
2024-02-17 15:32:52.245398,5,0.08361129998229444,141,space,space
2024-02-17 15:32:52.583559,5,0.323207099980209,142,l,l
2024-02-17 15:32:52.747148,5,0.1367754999664612,143,i,i
2024-02-17 15:32:52.806790,5,0.027669199975207448,144,b,b
2024-02-17 15:32:53.222775,5,0.3757064999663271,145,y,y
2024-02-17 15:32:53.496741,5,0.2526707999641076,146,a,a
2024-02-17 15:32:53.707718,5,0.197267199982889,147,space,space
2024-02-17 15:32:53.879095,5,0.15114699996775016,148,m,m
2024-02-17 15:32:53.964116,5,0.06919500004732981,149,o,o
2024-02-17 15:32:54.070113,5,0.07482929999241605,150,n,n
2024-02-17 15:32:54.124903,5,0.029864300042390823,151,t,t
2024-02-17 15:32:54.180946,5,0.016838799987453967,152,e,e
2024-02-17 15:32:54.382701,5,0.1692932999576442,153,n,n
2024-02-17 15:32:54.604142,5,0.19264030002523214,154,e,g
2024-02-17 15:32:54.725147,5,0.09645210002781823,154,e,e
2024-02-17 15:32:54.961878,5,0.21670560003258288,155,g,g
2024-02-17 15:32:55.190191,5,0.21198379999259487,156,r,r
2024-02-17 15:32:55.283237,5,0.07177410001168028,157,o,o
2024-02-17 15:32:55.457637,5,0.1460924999555573,158,space,space
2024-02-17 15:32:55.842418,5,0.3633859999827109,159,g,g
2024-02-17 15:32:56.057529,5,0.1959099000087008,160,r,r
2024-02-17 15:32:56.130277,5,0.051610000024084,161,e,e
2024-02-17 15:32:56.220872,5,0.056798200006596744,162,n,n
2024-02-17 15:32:56.320341,5,0.07375179999507964,163,a,a
2024-02-17 15:32:56.573345,5,0.22865140001522377,164,d,space
2024-02-17 15:32:56.874204,5,0.2801613000337966,164,d,d
2024-02-17 15:32:56.941909,5,0.046628199983388186,165,a,a
2024-02-17 15:32:57.011024,5,0.02886030002264306,166,space,space
2024-02-17 15:32:57.313410,5,0.26474810001673177,167,h,h
2024-02-17 15:32:57.404245,5,0.07565129996510223,168,o,o
2024-02-17 15:32:57.531143,5,0.10087810002733022,169,n,n
2024-02-17 15:32:57.654970,5,0.09301630000118166,170,d,d
2024-02-17 15:32:57.903725,5,0.22613630001433194,171,u,u
2024-02-17 15:32:57.956314,5,0.027765600010752678,172,r,r
2024-02-17 15:32:58.088678,5,0.09027850005077198,173,a,a
2024-02-17 15:32:58.280513,5,0.16870039998320863,174,s,s
2024-02-17 15:32:58.451250,5,0.15598410001257434,175,space,space
2024-02-17 15:32:58.774010,5,0.2950417000101879,176,u,u
2024-02-17 15:32:58.952322,5,0.15719800000078976,177,a,a
2024-02-17 15:32:59.212239,5,0.23324269999284297,178,e,e
2024-02-17 15:32:59.339472,5,0.11151750001590699,179,space,space
2024-02-17 15:32:59.647364,5,0.285521499987226,180,f,f
2024-02-17 15:32:59.708379,5,0.04631230002269149,181,i,i
2024-02-17 15:32:59.776608,5,0.027819400012958795,182,n,n
2024-02-17 15:32:59.986460,5,0.17194450000533834,183,l,l
2024-02-17 15:33:00.037709,5,0.024218600010499358,184,a,a
2024-02-17 15:33:00.156102,5,0.07384060003096238,185,n,n
2024-02-17 15:33:00.215812,5,0.0364621999906376,186,d,d
2024-02-17 15:33:00.350484,5,0.10224360000574961,187,space,space
2024-02-17 15:33:00.761451,5,0.38257429999066517,188,r,r
2024-02-17 15:33:00.891081,5,0.11248770001111552,189,w,a
2024-02-17 15:33:01.007310,5,0.0950913000269793,189,w,w
2024-02-17 15:33:01.258746,5,0.23008960002334788,190,a,a
2024-02-17 15:33:01.425789,5,0.1466148000326939,191,n,n
2024-02-17 15:33:01.551947,5,0.10593310004333034,192,d,a
2024-02-17 15:33:01.747563,5,0.1683206000016071,192,d,d
2024-02-17 15:33:01.889839,5,0.12751269998261705,193,a,space
2024-02-17 15:33:02.251717,5,0.33879750000778586,193,a,d
2024-02-17 15:33:02.409682,5,0.13031430001137778,193,a,a
2024-02-17 15:33:02.587698,5,0.15908800001488999,194,space,space
2024-02-17 15:33:02.845458,5,0.23251170001458377,195,b,b
2024-02-17 15:33:02.927024,5,0.06394899997394532,196,e,e
2024-02-17 15:33:03.050936,5,0.08597369998460636,197,l,l
2024-02-17 15:33:03.178973,5,0.09912020002957433,198,i,i
2024-02-17 15:33:03.225667,5,0.03009709995239973,199,z,z
2024-02-17 15:33:03.439532,5,0.1911794999614358,200,e,e
2024-02-17 15:33:03.551267,5,0.0878367000259459,201,space,space
2024-02-17 15:33:03.751487,5,0.16849070001626387,202,s,s
2024-02-17 15:33:03.822888,5,0.04372469999361783,203,o,o
2024-02-17 15:33:03.882173,5,0.016451199946459383,204,m,m
2024-02-17 15:33:03.984925,5,0.06923169997753575,205,a,a
2024-02-17 15:33:04.096407,5,0.08275050000520423,206,l,l
2024-02-17 15:33:04.234185,5,0.10553020000224933,207,i,i
2024-02-17 15:33:04.331005,5,0.06925609998870641,208,a,a
2024-02-17 15:33:04.425032,5,0.06334339996101335,209,space,space
2024-02-17 15:33:04.785391,5,0.3208430999657139,210,k,k
2024-02-17 15:33:04.888383,5,0.07522810000227764,211,o,o
2024-02-17 15:33:05.210987,5,0.2973989999736659,212,s,s
2024-02-17 15:33:05.325214,5,0.09559129999252036,213,o,o
2024-02-17 15:33:05.424878,5,0.07816610002191737,214,v,z
2024-02-17 15:33:05.582152,5,0.13661309995222837,214,v,o
2024-02-17 15:33:05.952593,5,0.3385812000487931,214,v,o
2024-02-17 15:33:06.462668,5,0.48286170000210404,214,v,v
2024-02-17 15:33:06.890462,5,0.41037169995252043,215,o,o
2024-02-17 15:33:07.774341,6,0.8612754999776371,0,r,r
2024-02-17 15:33:07.868155,6,0.06995189998997375,1,o,o
2024-02-17 15:33:07.913405,6,0.01545459998305887,2,m,m
2024-02-17 15:33:07.997289,6,0.04619620001176372,3,a,a
2024-02-17 15:33:08.124110,6,0.09131879999767989,4,n,n
2024-02-17 15:33:08.224748,6,0.07865089998813346,5,i,i
2024-02-17 15:33:08.337874,6,0.09160499996505678,6,a,a
2024-02-17 15:33:08.412381,6,0.04910930001642555,7,space,space
2024-02-17 15:33:08.848185,6,0.3992656000191346,8,t,t
2024-02-17 15:33:08.942460,6,0.07902339997235686,9,u,u
2024-02-17 15:33:09.084114,6,0.12097470002481714,10,r,r
2024-02-17 15:33:09.187997,6,0.07429199997568503,11,k,k
2024-02-17 15:33:09.588549,6,0.37550399999599904,12,m,m
2024-02-17 15:33:09.681600,6,0.06761649996042252,13,e,e
2024-02-17 15:33:09.776795,6,0.06333779997657984,14,n,n
2024-02-17 15:33:09.923496,6,0.12387479998869821,15,i,s
2024-02-17 15:33:10.126462,6,0.17990490002557635,15,i,i
2024-02-17 15:33:10.292957,6,0.14571740000974387,16,s,s
2024-02-17 15:33:10.502907,6,0.1891689000185579,17,t,t
2024-02-17 15:33:10.655350,6,0.1243356000049971,18,a,a
2024-02-17 15:33:10.813821,6,0.1339103000354953,19,n,n
2024-02-17 15:33:11.024418,6,0.19416260003345087,20,space,space
2024-02-17 15:33:11.207227,6,0.15991960000246763,21,c,c
2024-02-17 15:33:11.297329,6,0.06616569997277111,22,h,h
2024-02-17 15:33:11.379250,6,0.04498780000722036,23,a,a
2024-02-17 15:33:11.507097,6,0.09152670000912622,24,d,d
2024-02-17 15:33:11.627333,6,0.09664390003308654,25,space,space
2024-02-17 15:33:12.029998,6,0.38210390001768246,26,g,g
2024-02-17 15:33:12.211274,6,0.16358660004334524,27,r,r
2024-02-17 15:33:12.332086,6,0.1010105999885127,28,e,e
2024-02-17 15:33:12.464132,6,0.11696209997171536,29,e,e
2024-02-17 15:33:12.618299,6,0.13789780001388863,30,c,c
2024-02-17 15:33:12.722429,6,0.07408349995967001,31,e,e
2024-02-17 15:33:13.134057,6,0.38165190001018345,32,space,minus
2024-02-17 15:33:13.278312,6,0.13078610005322844,32,space,lshift
2024-02-17 15:33:13.625594,6,0.32845709996763617,32,space,space
2024-02-17 15:33:14.048680,6,0.4011272999923676,33,b,a
2024-02-17 15:33:14.319049,6,0.25501490000169724,33,b,b
2024-02-17 15:33:14.453550,6,0.10600169998360798,34,a,a
2024-02-17 15:33:14.559915,6,0.07885910000186414,35,h,h
2024-02-17 15:33:14.645817,6,0.06548239995026961,36,a,a
2024-02-17 15:33:14.791748,6,0.11105220002355054,37,m,m
2024-02-17 15:33:14.906625,6,0.09225619997596368,38,a,a
2024-02-17 15:33:15.186936,6,0.25624330004211515,39,s,a
2024-02-17 15:33:15.263076,6,0.04855259996838868,39,s,s
2024-02-17 15:33:15.381477,6,0.08106160000897944,40,space,space
2024-02-17 15:33:15.756405,6,0.3585353000089526,41,j,j
2024-02-17 15:33:15.831428,6,0.04980979999527335,42,a,a
2024-02-17 15:33:15.985229,6,0.11870120000094175,43,p,p
2024-02-17 15:33:16.092724,6,0.07757999998284504,44,a,a
2024-02-17 15:33:16.232041,6,0.11761590000241995,45,n,n
2024-02-17 15:33:16.498019,6,0.2504647999885492,46,space,space
2024-02-17 15:33:16.877909,6,0.3637106000096537,47,m,m
2024-02-17 15:33:16.948575,6,0.05081579997204244,48,a,a
2024-02-17 15:33:17.053162,6,0.06837029999587685,49,l,l
2024-02-17 15:33:17.156556,6,0.07412730000214651,50,d,d
2024-02-17 15:33:17.487584,6,0.3071326999925077,51,i,i
2024-02-17 15:33:17.551774,6,0.037211199989542365,52,v,v
2024-02-17 15:33:17.849451,6,0.26512980001280084,53,e,e
2024-02-17 15:33:18.043549,6,0.17900169995846227,54,s,s
2024-02-17 15:33:18.145329,6,0.0799117999849841,55,space,space
2024-02-17 15:33:18.353399,6,0.18848070001695305,56,m,a
2024-02-17 15:33:18.575182,6,0.1935273000271991,56,m,m
2024-02-17 15:33:18.755344,6,0.15725950000341982,57,a,l
2024-02-17 15:33:18.807700,6,0.026362000033259392,57,a,a
2024-02-17 15:33:18.968794,6,0.13466739997966215,58,l,t
2024-02-17 15:33:19.028038,6,0.03019189997576177,58,l,a
2024-02-17 15:33:19.145484,6,0.07674920000135899,58,l,l
2024-02-17 15:33:19.632350,6,0.46733740001218393,59,t,t
2024-02-17 15:33:19.683484,6,0.03453140001511201,60,a,a
2024-02-17 15:33:19.942216,6,0.22372939996421337,61,space,space
2024-02-17 15:33:20.378768,6,0.41333900002064183,62,a,a
2024-02-17 15:33:20.865994,6,0.4674475999781862,63,z,z
2024-02-17 15:33:21.078584,6,0.1966575999977067,64,e,e
2024-02-17 15:33:21.141996,6,0.043347899976652116,65,r,r
2024-02-17 15:33:21.588648,6,0.4228524999925867,66,b,b
2024-02-17 15:33:21.687355,6,0.07191670004976913,67,a,a
2024-02-17 15:33:21.920829,6,0.20451469998806715,68,i,i
2024-02-17 15:33:22.144514,6,0.19510460004676133,69,j,k
2024-02-17 15:33:22.303513,6,0.137943500012625,69,j,a
2024-02-17 15:33:22.396498,6,0.0644425000064075,69,j,n
2024-02-17 15:33:22.612864,6,0.18051479995483533,69,j,space
2024-02-17 15:33:23.182979,6,0.5518236999632791,69,j,j
2024-02-17 15:33:23.301454,6,0.10265549999894574,70,a,a
2024-02-17 15:33:23.404180,6,0.07107710000127554,71,n,n
2024-02-17 15:33:23.592471,6,0.1605551000102423,72,space,space
2024-02-17 15:33:23.787543,6,0.17138519999571145,73,c,c
2024-02-17 15:33:23.874037,6,0.05833479994907975,74,h,h
2024-02-17 15:33:23.993851,6,0.0922792999772355,75,i,i
2024-02-17 15:33:24.192197,6,0.17659309995360672,76,l,l
2024-02-17 15:33:24.293905,6,0.07812040002318099,77,e,e
2024-02-17 15:33:24.412145,6,0.09674880001693964,78,space,space
2024-02-17 15:33:25.290640,6,0.8582338999840431,79,v,v
2024-02-17 15:33:25.443217,6,0.12664740002946928,80,e,e
2024-02-17 15:33:25.514714,6,0.04880980000598356,81,n,n
2024-02-17 15:33:25.624727,6,0.07213049998972565,82,e,e
2024-02-17 15:33:25.914454,6,0.2646812000311911,83,z,z
2024-02-17 15:33:26.169019,6,0.23701909999363124,84,u,u
2024-02-17 15:33:26.306079,6,0.10748740000417456,85,e,e
2024-02-17 15:33:26.422931,6,0.09080900001572445,86,l,l
2024-02-17 15:33:26.675836,6,0.2269409000291489,87,a,a
2024-02-17 15:33:26.786836,6,0.08734829997410998,88,space,space
2024-02-17 15:33:27.250513,6,0.43277849996229634,89,e,e
2024-02-17 15:33:27.393515,6,0.12720300001092255,90,c,c
2024-02-17 15:33:27.517549,6,0.10110979998717085,91,u,u
2024-02-17 15:33:27.597514,6,0.06355249998159707,92,a,a
2024-02-17 15:33:27.910944,6,0.27552409999771044,93,d,d
2024-02-17 15:33:27.988960,6,0.055251399986445904,94,o,a
2024-02-17 15:33:28.144426,6,0.10812560003250837,94,o,r
2024-02-17 15:33:28.358185,6,0.19197450001956895,94,o,o
2024-02-17 15:33:28.508622,6,0.1243924000300467,95,r,r
2024-02-17 15:33:28.650548,6,0.11753940000198781,96,space,space
2024-02-17 15:33:29.151991,6,0.4856506999931298,97,a,a
2024-02-17 15:33:29.298534,6,0.11439400003291667,98,r,r
2024-02-17 15:33:29.465532,6,0.14923619996989146,99,g,g
2024-02-17 15:33:29.549194,6,0.06553100002929568,100,e,e
2024-02-17 15:33:29.598213,6,0.012499900010880083,101,n,n
2024-02-17 15:33:29.936943,6,0.3191061000106856,102,t,t
2024-02-17 15:33:30.026598,6,0.060153800004627556,103,i,i
2024-02-17 15:33:30.109864,6,0.05727679998381063,104,n,n
2024-02-17 15:33:30.238244,6,0.10229360003722832,105,a,a
2024-02-17 15:33:30.357365,6,0.09084430005168542,106,space,space
2024-02-17 15:33:30.628356,6,0.24478050001198426,107,i,i
2024-02-17 15:33:30.747737,6,0.09724109998205677,108,c,c
2024-02-17 15:33:30.815768,6,0.048614899977110326,109,e,e
2024-02-17 15:33:30.953167,6,0.09968729998217896,110,l,n
2024-02-17 15:33:31.216302,6,0.23347680002916604,110,l,l
2024-02-17 15:33:31.298388,6,0.0646843999857083,111,a,a
2024-02-17 15:33:31.411284,6,0.07436849997611716,112,n,n
2024-02-17 15:33:31.474068,6,0.040596699982415885,113,d,d
2024-02-17 15:33:31.587944,6,0.0857448999886401,114,space,space
2024-02-17 15:33:31.793072,6,0.17623919999459758,115,p,p
